"acc","accuracy","average_response_time","avg_rt","background","bidi","canvas_backend","clock_backend","color_backend","compensation","condition","coordinates","correct","correct_Welcome","correct_instruction","correct_keyboard_response","correct_response","count_Blank_Final","count_Blank_Initial","count_Eyes_Closed_1_Post","count_Eyes_Closed_1_Pre","count_Eyes_Closed_2_Post","count_Eyes_Closed_2_Pre","count_Eyes_Open_1_Post","count_Eyes_Open_1_Pre","count_Eyes_Open_2_Post","count_Eyes_Open_2_Pre","count_Ready","count_Task_is_over","count_Welcome","count_Welcome_Final","count_block_loop","count_correct_response_script","count_delay","count_ec1post","count_ec1pre","count_ec2post","count_ec2pre","count_end_of_experiment","count_eo1post","count_eo1pre","count_eo2post","count_eo2pre","count_experiment","count_fixation_dot_left","count_fixation_dot_right","count_initialise_setsize","count_instruction","count_instructions","count_keyboard_response","count_logger","count_memory","count_search_display_script","count_setsize_fixer","count_test","count_trial_sequence","counter","cue","datetime","delay_ec1post","delay_ec1pre","delay_ec2post","delay_ec2pre","delay_eo1post","delay_eo1pre","delay_eo2post","delay_eo2pre","description","disable_garbage_collection","experiment_file","experiment_path","font_bold","font_family","font_italic","font_size","font_underline","foreground","form_clicks","fullscreen","height","keyboard_backend","live_row","live_row_block_loop","logfile","match","mouse_backend","opensesame_codename","opensesame_version","repeat_cycle","response","response_Task_is_over","response_Welcome","response_Welcome_Final","response_end_of_experiment","response_instruction","response_instructions","response_keyboard_response","response_time","response_time_Task_is_over","response_time_Welcome","response_time_Welcome_Final","response_time_end_of_experiment","response_time_instruction","response_time_instructions","response_time_keyboard_response","round_decimals","sampler_backend","setsize","sound_buf_size","sound_channels","sound_freq","sound_sample_size","start","subject_nr","subject_parity","target_color","target_present","target_shape","time_Blank_Final","time_Blank_Initial","time_Eyes_Closed_1_Post","time_Eyes_Closed_1_Pre","time_Eyes_Closed_2_Post","time_Eyes_Closed_2_Pre","time_Eyes_Open_1_Post","time_Eyes_Open_1_Pre","time_Eyes_Open_2_Post","time_Eyes_Open_2_Pre","time_Ready","time_Task_is_over","time_Welcome","time_Welcome_Final","time_block_loop","time_correct_response_script","time_delay","time_ec1post","time_ec1pre","time_ec2post","time_ec2pre","time_end_of_experiment","time_eo1post","time_eo1pre","time_eo2post","time_eo2pre","time_experiment","time_fixation_dot_left","time_fixation_dot_right","time_initialise_setsize","time_instruction","time_instructions","time_keyboard_response","time_logger","time_memory","time_search_display_script","time_setsize_fixer","time_test","time_trial_sequence","title","total_correct","total_response_time","total_responses","trial","uniform_coordinates","width"
"100","100","1699","1699","black","yes","legacy","legacy","legacy","0","NA","uniform","1","undefined","undefined","1","a","0","0","0","0","0","0","0","0","0","0","0","0","0","0","0","0","0","0","0","0","0","0","0","0","0","0","0","0","0","0","0","NA","0","0","0","NA","0","0","0","0","R","Wed Jan 13 14:06:07 2021","60000","60000","60000","60000","60000","60000","60000","60000","A template containing a practice and an experimental phase","yes","CCS_ACDMT_11012021.osexp","C:/Users/NIM-NPH-SAT/Desktop","no","mono","no","18","no","white","no","yes","768","legacy","0","0","C:/Users/NIM-NPH-SAT/Desktop/subject-10.csv","Y","legacy","Lentiform Loewenfeld","3.3.3","0","a","NA","space","NA","NA","space","NA","a","1699","NA","9380","NA","NA","14223","NA","1699","2","legacy","2","1024","2","48000","-16","experiment","10","even","NA","NA","NA","NA","11520","NA","12020","NA","134131","NA","73079","NA","195191","270582","NA","2137","NA","270478","270580","271890","NA","13079","NA","135191","NA","NA","74131","NA","196251","2130","NA","271083","270478","256255","NA","272794","274493","271586","NA","NA","272794","270580","adaptive_sets","1","1699","1","T1","yes","1360"
"100","100","1598","1598","black","yes","legacy","legacy","legacy","0","NA","uniform","1","undefined","undefined","1","l","0","0","0","0","0","0","0","0","0","0","1","0","0","0","0","1","1","0","0","0","0","0","0","0","0","0","0","1","1","0","0","NA","1","1","1","NA","1","1","1","1","L","Wed Jan 13 14:06:07 2021","60000","60000","60000","60000","60000","60000","60000","60000","A template containing a practice and an experimental phase","yes","CCS_ACDMT_11012021.osexp","C:/Users/NIM-NPH-SAT/Desktop","no","mono","no","18","no","white","no","yes","768","legacy","1","1","C:/Users/NIM-NPH-SAT/Desktop/subject-10.csv","N","legacy","Lentiform Loewenfeld","3.3.3","0","l","NA","space","NA","NA","space","NA","l","1497","NA","9380","NA","NA","14223","NA","1497","2","legacy","2","1024","2","48000","-16","experiment","10","even","NA","NA","NA","NA","11520","NA","12020","NA","134131","NA","73079","NA","195191","274672","NA","2137","NA","270478","274671","275981","NA","13079","NA","135191","NA","NA","74131","NA","196251","2130","275173","271083","270478","256255","NA","276884","278381","275676","NA","274543","276884","274671","adaptive_sets","2","3196","2","T2","yes","1360"
"66.66666666666667","66.66666666666667","1511.3333333333333","1511.3333333333333","black","yes","legacy","legacy","legacy","0","NA","uniform","0","undefined","undefined","0","l","0","0","0","0","0","0","0","0","0","0","2","0","0","0","0","2","2","0","0","0","0","0","0","0","0","0","0","2","2","0","0","NA","2","2","2","NA","2","2","2","0","L","Wed Jan 13 14:06:07 2021","60000","60000","60000","60000","60000","60000","60000","60000","A template containing a practice and an experimental phase","yes","CCS_ACDMT_11012021.osexp","C:/Users/NIM-NPH-SAT/Desktop","no","mono","no","18","no","white","no","yes","768","legacy","2","2","C:/Users/NIM-NPH-SAT/Desktop/subject-10.csv","N","legacy","Lentiform Loewenfeld","3.3.3","0","a","NA","space","NA","NA","space","NA","a","1338","NA","9380","NA","NA","14223","NA","1338","2","legacy","3","1024","2","48000","-16","experiment","10","even","NA","NA","NA","NA","11520","NA","12020","NA","134131","NA","73079","NA","195191","278528","NA","2137","NA","270478","278526","279836","NA","13079","NA","135191","NA","NA","74131","NA","196251","2130","279029","271083","270478","256255","NA","280740","282078","279532","NA","278404","280740","278526","adaptive_sets","2","4534","3","T3","yes","1360"
"75","75","1494.5","1494.5","black","yes","legacy","legacy","legacy","0","NA","uniform","1","undefined","undefined","1","l","0","0","0","0","0","0","0","0","0","0","3","0","0","0","0","3","3","0","0","0","0","0","0","0","0","0","0","3","3","0","0","NA","3","3","3","NA","3","3","3","0","L","Wed Jan 13 14:06:07 2021","60000","60000","60000","60000","60000","60000","60000","60000","A template containing a practice and an experimental phase","yes","CCS_ACDMT_11012021.osexp","C:/Users/NIM-NPH-SAT/Desktop","no","mono","no","18","no","white","no","yes","768","legacy","3","3","C:/Users/NIM-NPH-SAT/Desktop/subject-10.csv","N","legacy","Lentiform Loewenfeld","3.3.3","0","l","NA","space","NA","NA","space","NA","l","1444","NA","9380","NA","NA","14223","NA","1444","2","legacy","2","1024","2","48000","-16","experiment","10","even","NA","NA","NA","NA","11520","NA","12020","NA","134131","NA","73079","NA","195191","282231","NA","2137","NA","270478","282229","283537","NA","13079","NA","135191","NA","NA","74131","NA","196251","2130","282732","271083","270478","256255","NA","284441","285885","283233","NA","282106","284441","282229","adaptive_sets","3","5978","4","T4","yes","1360"
"80","80","1500.6","1500.6","black","yes","legacy","legacy","legacy","0","NA","uniform","1","undefined","undefined","1","l","0","0","0","0","0","0","0","0","0","0","4","0","0","0","0","4","4","0","0","0","0","0","0","0","0","0","0","4","4","0","0","NA","4","4","4","NA","4","4","4","1","R","Wed Jan 13 14:06:07 2021","60000","60000","60000","60000","60000","60000","60000","60000","A template containing a practice and an experimental phase","yes","CCS_ACDMT_11012021.osexp","C:/Users/NIM-NPH-SAT/Desktop","no","mono","no","18","no","white","no","yes","768","legacy","4","4","C:/Users/NIM-NPH-SAT/Desktop/subject-10.csv","N","legacy","Lentiform Loewenfeld","3.3.3","0","l","NA","space","NA","NA","space","NA","l","1525","NA","9380","NA","NA","14223","NA","1525","2","legacy","2","1024","2","48000","-16","experiment","10","even","NA","NA","NA","NA","11520","NA","12020","NA","134131","NA","73079","NA","195191","286025","NA","2137","NA","270478","286023","287330","NA","13079","NA","135191","NA","NA","74131","NA","196251","2130","282732","286526","270478","256255","NA","288232","289757","287027","NA","285905","288231","286023","adaptive_sets","4","7503","5","T5","yes","1360"
"83.33333333333333","83.33333333333333","1454.3333333333333","1454.3333333333333","black","yes","legacy","legacy","legacy","0","NA","uniform","1","undefined","undefined","1","a","0","0","0","0","0","0","0","0","0","0","5","0","0","0","0","5","5","0","0","0","0","0","0","0","0","0","0","5","5","0","0","NA","5","5","5","NA","5","5","5","0","L","Wed Jan 13 14:06:07 2021","60000","60000","60000","60000","60000","60000","60000","60000","A template containing a practice and an experimental phase","yes","CCS_ACDMT_11012021.osexp","C:/Users/NIM-NPH-SAT/Desktop","no","mono","no","18","no","white","no","yes","768","legacy","5","5","C:/Users/NIM-NPH-SAT/Desktop/subject-10.csv","Y","legacy","Lentiform Loewenfeld","3.3.3","0","a","NA","space","NA","NA","space","NA","a","1223","NA","9380","NA","NA","14223","NA","1223","2","legacy","3","1024","2","48000","-16","experiment","10","even","NA","NA","NA","NA","11520","NA","12020","NA","134131","NA","73079","NA","195191","289923","NA","2137","NA","270478","289922","291230","NA","13079","NA","135191","NA","NA","74131","NA","196251","2130","290424","286526","270478","256255","NA","292134","293357","290925","NA","289784","292134","289921","adaptive_sets","5","8726","6","T6","yes","1360"
"71.42857142857143","71.42857142857143","1532.2857142857142","1532.2857142857142","black","yes","legacy","legacy","legacy","0","NA","uniform","0","undefined","undefined","0","l","0","0","0","0","0","0","0","0","0","0","6","0","0","0","0","6","6","0","0","0","0","0","0","0","0","0","0","6","6","0","0","NA","6","6","6","NA","6","6","6","1","R","Wed Jan 13 14:06:07 2021","60000","60000","60000","60000","60000","60000","60000","60000","A template containing a practice and an experimental phase","yes","CCS_ACDMT_11012021.osexp","C:/Users/NIM-NPH-SAT/Desktop","no","mono","no","18","no","white","no","yes","768","legacy","6","6","C:/Users/NIM-NPH-SAT/Desktop/subject-10.csv","N","legacy","Lentiform Loewenfeld","3.3.3","0","None","NA","space","NA","NA","space","NA","None","2000","NA","9380","NA","NA","14223","NA","2000","2","legacy","3","1024","2","48000","-16","experiment","10","even","NA","NA","NA","NA","11520","NA","12020","NA","134131","NA","73079","NA","195191","293498","NA","2137","NA","270478","293496","294807","NA","13079","NA","135191","NA","NA","74131","NA","196251","2130","290424","293999","270478","256255","NA","295711","297711","294502","NA","293377","295710","293496","adaptive_sets","5","10726","7","T7","yes","1360"
"75","75","1515.375","1515.375","black","yes","legacy","legacy","legacy","0","NA","uniform","1","undefined","undefined","1","a","0","0","0","0","0","0","0","0","0","0","7","0","0","0","0","7","7","0","0","0","0","0","0","0","0","0","0","7","7","0","0","NA","7","7","7","NA","7","7","7","0","L","Wed Jan 13 14:06:07 2021","60000","60000","60000","60000","60000","60000","60000","60000","A template containing a practice and an experimental phase","yes","CCS_ACDMT_11012021.osexp","C:/Users/NIM-NPH-SAT/Desktop","no","mono","no","18","no","white","no","yes","768","legacy","7","7","C:/Users/NIM-NPH-SAT/Desktop/subject-10.csv","Y","legacy","Lentiform Loewenfeld","3.3.3","0","a","NA","space","NA","NA","space","NA","a","1397","NA","9380","NA","NA","14223","NA","1397","2","legacy","2","1024","2","48000","-16","experiment","10","even","NA","NA","NA","NA","11520","NA","12020","NA","134131","NA","73079","NA","195191","297847","NA","2137","NA","270478","297846","299153","NA","13079","NA","135191","NA","NA","74131","NA","196251","2130","298348","293999","270478","256255","NA","300057","301454","298849","NA","297729","300057","297846","adaptive_sets","6","12123","8","T8","yes","1360"
"66.66666666666667","66.66666666666667","1523.5555555555557","1523.5555555555557","black","yes","legacy","legacy","legacy","0","NA","uniform","0","undefined","undefined","0","l","0","0","0","0","0","0","0","0","0","0","8","0","0","0","0","8","8","0","0","0","0","0","0","0","0","0","0","8","8","0","0","NA","8","8","8","NA","8","8","8","1","R","Wed Jan 13 14:06:07 2021","60000","60000","60000","60000","60000","60000","60000","60000","A template containing a practice and an experimental phase","yes","CCS_ACDMT_11012021.osexp","C:/Users/NIM-NPH-SAT/Desktop","no","mono","no","18","no","white","no","yes","768","legacy","8","8","C:/Users/NIM-NPH-SAT/Desktop/subject-10.csv","N","legacy","Lentiform Loewenfeld","3.3.3","0","a","NA","space","NA","NA","space","NA","a","1589","NA","9380","NA","NA","14223","NA","1589","2","legacy","2","1024","2","48000","-16","experiment","10","even","NA","NA","NA","NA","11520","NA","12020","NA","134131","NA","73079","NA","195191","301592","NA","2137","NA","270478","301590","302898","NA","13079","NA","135191","NA","NA","74131","NA","196251","2130","298348","302093","270478","256255","NA","303801","305390","302594","NA","301472","303801","301590","adaptive_sets","6","13712","9","T9","yes","1360"
"70","70","1528.8","1528.8","black","yes","legacy","legacy","legacy","0","NA","uniform","1","undefined","undefined","1","a","0","0","0","0","0","0","0","0","0","0","9","0","0","0","0","9","9","0","0","0","0","0","0","0","0","0","0","9","9","0","0","NA","9","9","9","NA","9","9","9","0","L","Wed Jan 13 14:06:07 2021","60000","60000","60000","60000","60000","60000","60000","60000","A template containing a practice and an experimental phase","yes","CCS_ACDMT_11012021.osexp","C:/Users/NIM-NPH-SAT/Desktop","no","mono","no","18","no","white","no","yes","768","legacy","9","9","C:/Users/NIM-NPH-SAT/Desktop/subject-10.csv","Y","legacy","Lentiform Loewenfeld","3.3.3","0","a","NA","space","NA","NA","space","NA","a","1576","NA","9380","NA","NA","14223","NA","1576","2","legacy","2","1024","2","48000","-16","experiment","10","even","NA","NA","NA","NA","11520","NA","12020","NA","134131","NA","73079","NA","195191","305521","NA","2137","NA","270478","305519","306829","NA","13079","NA","135191","NA","NA","74131","NA","196251","2130","306022","302093","270478","256255","NA","307733","309310","306525","NA","305405","307733","305519","adaptive_sets","7","15288","10","T10","yes","1360"
"72.72727272727273","72.72727272727273","1507.7272727272727","1507.7272727272727","black","yes","legacy","legacy","legacy","0","NA","uniform","1","undefined","undefined","1","a","0","0","0","0","0","0","0","0","0","0","10","0","0","0","0","10","10","0","0","0","0","0","0","0","0","0","0","10","10","0","0","NA","10","10","10","NA","10","10","10","1","R","Wed Jan 13 14:06:07 2021","60000","60000","60000","60000","60000","60000","60000","60000","A template containing a practice and an experimental phase","yes","CCS_ACDMT_11012021.osexp","C:/Users/NIM-NPH-SAT/Desktop","no","mono","no","18","no","white","no","yes","768","legacy","10","10","C:/Users/NIM-NPH-SAT/Desktop/subject-10.csv","Y","legacy","Lentiform Loewenfeld","3.3.3","0","a","NA","space","NA","NA","space","NA","a","1297","NA","9380","NA","NA","14223","NA","1297","2","legacy","2","1024","2","48000","-16","experiment","10","even","NA","NA","NA","NA","11520","NA","12020","NA","134131","NA","73079","NA","195191","309451","NA","2137","NA","270478","309450","310758","NA","13079","NA","135191","NA","NA","74131","NA","196251","2130","306022","309953","270478","256255","NA","311661","312958","310454","NA","309334","311661","309450","adaptive_sets","8","16585","11","T11","yes","1360"
"66.66666666666667","66.66666666666667","1548.75","1548.75","black","yes","legacy","legacy","legacy","0","NA","uniform","0","undefined","undefined","0","l","0","0","0","0","0","0","0","0","0","0","11","0","0","0","0","11","11","0","0","0","0","0","0","0","0","0","0","11","11","0","0","NA","11","11","11","NA","11","11","11","0","L","Wed Jan 13 14:06:07 2021","60000","60000","60000","60000","60000","60000","60000","60000","A template containing a practice and an experimental phase","yes","CCS_ACDMT_11012021.osexp","C:/Users/NIM-NPH-SAT/Desktop","no","mono","no","18","no","white","no","yes","768","legacy","11","11","C:/Users/NIM-NPH-SAT/Desktop/subject-10.csv","N","legacy","Lentiform Loewenfeld","3.3.3","0","None","NA","space","NA","NA","space","NA","None","2000","NA","9380","NA","NA","14223","NA","2000","2","legacy","3","1024","2","48000","-16","experiment","10","even","NA","NA","NA","NA","11520","NA","12020","NA","134131","NA","73079","NA","195191","313104","NA","2137","NA","270478","313102","314409","NA","13079","NA","135191","NA","NA","74131","NA","196251","2130","313605","309953","270478","256255","NA","315313","317313","314106","NA","312985","315313","313102","adaptive_sets","8","18585","12","T12","yes","1360"
"69.23076923076923","69.23076923076923","1525.6923076923076","1525.6923076923076","black","yes","legacy","legacy","legacy","0","NA","uniform","1","undefined","undefined","1","l","0","0","0","0","0","0","0","0","0","0","12","0","0","0","0","12","12","0","0","0","0","0","0","0","0","0","0","12","12","0","0","NA","12","12","12","NA","12","12","12","0","R","Wed Jan 13 14:06:07 2021","60000","60000","60000","60000","60000","60000","60000","60000","A template containing a practice and an experimental phase","yes","CCS_ACDMT_11012021.osexp","C:/Users/NIM-NPH-SAT/Desktop","no","mono","no","18","no","white","no","yes","768","legacy","12","12","C:/Users/NIM-NPH-SAT/Desktop/subject-10.csv","N","legacy","Lentiform Loewenfeld","3.3.3","0","l","NA","space","NA","NA","space","NA","l","1249","NA","9380","NA","NA","14223","NA","1249","2","legacy","2","1024","2","48000","-16","experiment","10","even","NA","NA","NA","NA","11520","NA","12020","NA","134131","NA","73079","NA","195191","317465","NA","2137","NA","270478","317463","318772","NA","13079","NA","135191","NA","NA","74131","NA","196251","2130","313605","317966","270478","256255","NA","319676","320926","318467","NA","317345","319676","317463","adaptive_sets","9","19834","13","T13","yes","1360"
"71.42857142857143","71.42857142857143","1507.0714285714287","1507.0714285714287","black","yes","legacy","legacy","legacy","0","NA","uniform","1","undefined","undefined","1","a","0","0","0","0","0","0","0","0","0","0","13","0","0","0","0","13","13","0","0","0","0","0","0","0","0","0","0","13","13","0","0","NA","13","13","13","NA","13","13","13","1","R","Wed Jan 13 14:06:07 2021","60000","60000","60000","60000","60000","60000","60000","60000","A template containing a practice and an experimental phase","yes","CCS_ACDMT_11012021.osexp","C:/Users/NIM-NPH-SAT/Desktop","no","mono","no","18","no","white","no","yes","768","legacy","13","13","C:/Users/NIM-NPH-SAT/Desktop/subject-10.csv","Y","legacy","Lentiform Loewenfeld","3.3.3","0","a","NA","space","NA","NA","space","NA","a","1265","NA","9380","NA","NA","14223","NA","1265","2","legacy","2","1024","2","48000","-16","experiment","10","even","NA","NA","NA","NA","11520","NA","12020","NA","134131","NA","73079","NA","195191","321083","NA","2137","NA","270478","321081","322389","NA","13079","NA","135191","NA","NA","74131","NA","196251","2130","313605","321584","270478","256255","NA","323293","324558","322085","NA","320963","323293","321081","adaptive_sets","10","21099","14","T14","yes","1360"
"73.33333333333333","73.33333333333333","1501.4666666666667","1501.4666666666667","black","yes","legacy","legacy","legacy","0","NA","uniform","1","undefined","undefined","1","l","0","0","0","0","0","0","0","0","0","0","14","0","0","0","0","14","14","0","0","0","0","0","0","0","0","0","0","14","14","0","0","NA","14","14","14","NA","14","14","14","0","L","Wed Jan 13 14:06:07 2021","60000","60000","60000","60000","60000","60000","60000","60000","A template containing a practice and an experimental phase","yes","CCS_ACDMT_11012021.osexp","C:/Users/NIM-NPH-SAT/Desktop","no","mono","no","18","no","white","no","yes","768","legacy","14","14","C:/Users/NIM-NPH-SAT/Desktop/subject-10.csv","N","legacy","Lentiform Loewenfeld","3.3.3","0","l","NA","space","NA","NA","space","NA","l","1423","NA","9380","NA","NA","14223","NA","1423","2","legacy","3","1024","2","48000","-16","experiment","10","even","NA","NA","NA","NA","11520","NA","12020","NA","134131","NA","73079","NA","195191","324700","NA","2137","NA","270478","324698","326007","NA","13079","NA","135191","NA","NA","74131","NA","196251","2130","325201","321584","270478","256255","NA","326911","328334","325703","NA","324581","326911","324698","adaptive_sets","11","22522","15","T15","yes","1360"
"75","75","1515.5","1515.5","black","yes","legacy","legacy","legacy","0","NA","uniform","1","undefined","undefined","1","a","0","0","0","0","0","0","0","0","0","0","15","0","0","0","0","15","15","0","0","0","0","0","0","0","0","0","0","15","15","0","0","NA","15","15","15","NA","15","15","15","1","R","Wed Jan 13 14:06:07 2021","60000","60000","60000","60000","60000","60000","60000","60000","A template containing a practice and an experimental phase","yes","CCS_ACDMT_11012021.osexp","C:/Users/NIM-NPH-SAT/Desktop","no","mono","no","18","no","white","no","yes","768","legacy","15","15","C:/Users/NIM-NPH-SAT/Desktop/subject-10.csv","Y","legacy","Lentiform Loewenfeld","3.3.3","0","a","NA","space","NA","NA","space","NA","a","1726","NA","9380","NA","NA","14223","NA","1726","2","legacy","3","1024","2","48000","-16","experiment","10","even","NA","NA","NA","NA","11520","NA","12020","NA","134131","NA","73079","NA","195191","328492","NA","2137","NA","270478","328490","329800","NA","13079","NA","135191","NA","NA","74131","NA","196251","2130","325201","328993","270478","256255","NA","330704","332430","329496","NA","328366","330704","328490","adaptive_sets","12","24248","16","T16","yes","1360"
"76.47058823529412","76.47058823529412","1512.4117647058824","1512.4117647058824","black","yes","legacy","legacy","legacy","0","NA","uniform","1","undefined","undefined","1","a","0","0","0","0","0","0","0","0","0","0","16","0","0","0","0","16","16","0","0","0","0","0","0","0","0","0","0","16","16","0","0","NA","16","16","16","NA","16","16","16","0","R","Wed Jan 13 14:06:07 2021","60000","60000","60000","60000","60000","60000","60000","60000","A template containing a practice and an experimental phase","yes","CCS_ACDMT_11012021.osexp","C:/Users/NIM-NPH-SAT/Desktop","no","mono","no","18","no","white","no","yes","768","legacy","16","16","C:/Users/NIM-NPH-SAT/Desktop/subject-10.csv","Y","legacy","Lentiform Loewenfeld","3.3.3","0","a","NA","space","NA","NA","space","NA","a","1463","NA","9380","NA","NA","14223","NA","1463","2","legacy","4","1024","2","48000","-16","experiment","10","even","NA","NA","NA","NA","11520","NA","12020","NA","134131","NA","73079","NA","195191","332580","NA","2137","NA","270478","332578","333886","NA","13079","NA","135191","NA","NA","74131","NA","196251","2130","325201","333081","270478","256255","NA","334790","336254","333582","NA","332460","334790","332578","adaptive_sets","13","25711","17","T17","yes","1360"
"77.77777777777777","77.77777777777777","1495.1666666666667","1495.1666666666667","black","yes","legacy","legacy","legacy","0","NA","uniform","1","undefined","undefined","1","l","0","0","0","0","0","0","0","0","0","0","17","0","0","0","0","17","17","0","0","0","0","0","0","0","0","0","0","17","17","0","0","NA","17","17","17","NA","17","17","17","1","R","Wed Jan 13 14:06:07 2021","60000","60000","60000","60000","60000","60000","60000","60000","A template containing a practice and an experimental phase","yes","CCS_ACDMT_11012021.osexp","C:/Users/NIM-NPH-SAT/Desktop","no","mono","no","18","no","white","no","yes","768","legacy","17","17","C:/Users/NIM-NPH-SAT/Desktop/subject-10.csv","N","legacy","Lentiform Loewenfeld","3.3.3","0","l","NA","space","NA","NA","space","NA","l","1202","NA","9380","NA","NA","14223","NA","1202","2","legacy","4","1024","2","48000","-16","experiment","10","even","NA","NA","NA","NA","11520","NA","12020","NA","134131","NA","73079","NA","195191","336395","NA","2137","NA","270478","336393","337700","NA","13079","NA","135191","NA","NA","74131","NA","196251","2130","325201","336896","270478","256255","NA","338604","339806","337397","NA","336276","338604","336393","adaptive_sets","14","26913","18","T18","yes","1360"
"73.6842105263158","73.6842105263158","1521.7368421052631","1521.7368421052631","black","yes","legacy","legacy","legacy","0","NA","uniform","0","undefined","undefined","0","a","0","0","0","0","0","0","0","0","0","0","18","0","0","0","0","18","18","0","0","0","0","0","0","0","0","0","0","18","18","0","0","NA","18","18","18","NA","18","18","18","0","L","Wed Jan 13 14:06:07 2021","60000","60000","60000","60000","60000","60000","60000","60000","A template containing a practice and an experimental phase","yes","CCS_ACDMT_11012021.osexp","C:/Users/NIM-NPH-SAT/Desktop","no","mono","no","18","no","white","no","yes","768","legacy","18","18","C:/Users/NIM-NPH-SAT/Desktop/subject-10.csv","Y","legacy","Lentiform Loewenfeld","3.3.3","0","None","NA","space","NA","NA","space","NA","None","2000","NA","9380","NA","NA","14223","NA","2000","2","legacy","5","1024","2","48000","-16","experiment","10","even","NA","NA","NA","NA","11520","NA","12020","NA","134131","NA","73079","NA","195191","339974","NA","2137","NA","270478","339972","341280","NA","13079","NA","135191","NA","NA","74131","NA","196251","2130","340475","336896","270478","256255","NA","342184","344184","340976","NA","339846","342184","339972","adaptive_sets","14","28913","19","T19","yes","1360"
"75","75","1507.1","1507.1","black","yes","legacy","legacy","legacy","0","NA","uniform","1","undefined","undefined","1","a","0","0","0","0","0","0","0","0","0","0","19","0","0","0","0","19","19","0","0","0","0","0","0","0","0","0","0","19","19","0","0","NA","19","19","19","NA","19","19","19","0","L","Wed Jan 13 14:06:07 2021","60000","60000","60000","60000","60000","60000","60000","60000","A template containing a practice and an experimental phase","yes","CCS_ACDMT_11012021.osexp","C:/Users/NIM-NPH-SAT/Desktop","no","mono","no","18","no","white","no","yes","768","legacy","19","19","C:/Users/NIM-NPH-SAT/Desktop/subject-10.csv","Y","legacy","Lentiform Loewenfeld","3.3.3","0","a","NA","space","NA","NA","space","NA","a","1229","NA","9380","NA","NA","14223","NA","1229","2","legacy","4","1024","2","48000","-16","experiment","10","even","NA","NA","NA","NA","11520","NA","12020","NA","134131","NA","73079","NA","195191","344333","NA","2137","NA","270478","344332","345640","NA","13079","NA","135191","NA","NA","74131","NA","196251","2130","344834","336896","270478","256255","NA","346544","347774","345336","NA","344209","346543","344332","adaptive_sets","15","30142","20","T20","yes","1360"
"71.42857142857143","71.42857142857143","1525.1904761904761","1525.1904761904761","black","yes","legacy","legacy","legacy","0","NA","uniform","0","undefined","undefined","0","l","0","0","0","0","0","0","0","0","0","0","20","0","0","0","0","20","20","0","0","0","0","0","0","0","0","0","0","20","20","0","0","NA","20","20","20","NA","20","20","20","1","L","Wed Jan 13 14:06:07 2021","60000","60000","60000","60000","60000","60000","60000","60000","A template containing a practice and an experimental phase","yes","CCS_ACDMT_11012021.osexp","C:/Users/NIM-NPH-SAT/Desktop","no","mono","no","18","no","white","no","yes","768","legacy","20","20","C:/Users/NIM-NPH-SAT/Desktop/subject-10.csv","N","legacy","Lentiform Loewenfeld","3.3.3","0","a","NA","space","NA","NA","space","NA","a","1887","NA","9380","NA","NA","14223","NA","1887","2","legacy","4","1024","2","48000","-16","experiment","10","even","NA","NA","NA","NA","11520","NA","12020","NA","134131","NA","73079","NA","195191","347919","NA","2137","NA","270478","347917","349222","NA","13079","NA","135191","NA","NA","74131","NA","196251","2130","348420","336896","270478","256255","NA","350126","352014","348921","NA","347802","350126","347917","adaptive_sets","15","32029","21","T21","yes","1360"
"72.72727272727273","72.72727272727273","1511.590909090909","1511.590909090909","black","yes","legacy","legacy","legacy","0","NA","uniform","1","undefined","undefined","1","a","0","0","0","0","0","0","0","0","0","0","21","0","0","0","0","21","21","0","0","0","0","0","0","0","0","0","0","21","21","0","0","NA","21","21","21","NA","21","21","21","0","R","Wed Jan 13 14:06:07 2021","60000","60000","60000","60000","60000","60000","60000","60000","A template containing a practice and an experimental phase","yes","CCS_ACDMT_11012021.osexp","C:/Users/NIM-NPH-SAT/Desktop","no","mono","no","18","no","white","no","yes","768","legacy","21","21","C:/Users/NIM-NPH-SAT/Desktop/subject-10.csv","Y","legacy","Lentiform Loewenfeld","3.3.3","0","a","NA","space","NA","NA","space","NA","a","1226","NA","9380","NA","NA","14223","NA","1226","2","legacy","3","1024","2","48000","-16","experiment","10","even","NA","NA","NA","NA","11520","NA","12020","NA","134131","NA","73079","NA","195191","352163","NA","2137","NA","270478","352161","353469","NA","13079","NA","135191","NA","NA","74131","NA","196251","2130","348420","352664","270478","256255","NA","354372","355598","353165","NA","352045","354372","352161","adaptive_sets","16","33255","22","T22","yes","1360"
"73.91304347826087","73.91304347826087","1492.4347826086957","1492.4347826086957","black","yes","legacy","legacy","legacy","0","NA","uniform","1","undefined","undefined","1","a","0","0","0","0","0","0","0","0","0","0","22","0","0","0","0","22","22","0","0","0","0","0","0","0","0","0","0","22","22","0","0","NA","22","22","22","NA","22","22","22","1","L","Wed Jan 13 14:06:07 2021","60000","60000","60000","60000","60000","60000","60000","60000","A template containing a practice and an experimental phase","yes","CCS_ACDMT_11012021.osexp","C:/Users/NIM-NPH-SAT/Desktop","no","mono","no","18","no","white","no","yes","768","legacy","22","22","C:/Users/NIM-NPH-SAT/Desktop/subject-10.csv","Y","legacy","Lentiform Loewenfeld","3.3.3","0","a","NA","space","NA","NA","space","NA","a","1071","NA","9380","NA","NA","14223","NA","1071","2","legacy","3","1024","2","48000","-16","experiment","10","even","NA","NA","NA","NA","11520","NA","12020","NA","134131","NA","73079","NA","195191","355741","NA","2137","NA","270478","355740","357047","NA","13079","NA","135191","NA","NA","74131","NA","196251","2130","356242","352664","270478","256255","NA","357951","359022","356745","NA","355622","357951","355740","adaptive_sets","17","34326","23","T23","yes","1360"
"75","75","1479.5416666666667","1479.5416666666667","black","yes","legacy","legacy","legacy","0","NA","uniform","1","undefined","undefined","1","a","0","0","0","0","0","0","0","0","0","0","23","0","0","0","0","23","23","0","0","0","0","0","0","0","0","0","0","23","23","0","0","NA","23","23","23","NA","23","23","23","0","L","Wed Jan 13 14:06:07 2021","60000","60000","60000","60000","60000","60000","60000","60000","A template containing a practice and an experimental phase","yes","CCS_ACDMT_11012021.osexp","C:/Users/NIM-NPH-SAT/Desktop","no","mono","no","18","no","white","no","yes","768","legacy","23","23","C:/Users/NIM-NPH-SAT/Desktop/subject-10.csv","Y","legacy","Lentiform Loewenfeld","3.3.3","0","a","NA","space","NA","NA","space","NA","a","1183","NA","9380","NA","NA","14223","NA","1183","2","legacy","4","1024","2","48000","-16","experiment","10","even","NA","NA","NA","NA","11520","NA","12020","NA","134131","NA","73079","NA","195191","359176","NA","2137","NA","270478","359174","360486","NA","13079","NA","135191","NA","NA","74131","NA","196251","2130","359678","352664","270478","256255","NA","361390","362574","360182","NA","359048","361390","359174","adaptive_sets","18","35509","24","T24","yes","1360"
"76","76","1467.16","1467.16","black","yes","legacy","legacy","legacy","0","NA","uniform","1","undefined","undefined","1","l","0","0","0","0","0","0","0","0","0","0","24","0","0","0","0","24","24","0","0","0","0","0","0","0","0","0","0","24","24","0","0","NA","24","24","24","NA","24","24","24","1","L","Wed Jan 13 14:06:07 2021","60000","60000","60000","60000","60000","60000","60000","60000","A template containing a practice and an experimental phase","yes","CCS_ACDMT_11012021.osexp","C:/Users/NIM-NPH-SAT/Desktop","no","mono","no","18","no","white","no","yes","768","legacy","24","24","C:/Users/NIM-NPH-SAT/Desktop/subject-10.csv","N","legacy","Lentiform Loewenfeld","3.3.3","0","l","NA","space","NA","NA","space","NA","l","1170","NA","9380","NA","NA","14223","NA","1170","2","legacy","4","1024","2","48000","-16","experiment","10","even","NA","NA","NA","NA","11520","NA","12020","NA","134131","NA","73079","NA","195191","362728","NA","2137","NA","270478","362726","364036","NA","13079","NA","135191","NA","NA","74131","NA","196251","2130","363229","352664","270478","256255","NA","364939","366110","363732","NA","362600","364939","362726","adaptive_sets","19","36679","25","T25","yes","1360"
"76.92307692307692","76.92307692307692","1479.3461538461538","1479.3461538461538","black","yes","legacy","legacy","legacy","0","NA","uniform","1","undefined","undefined","1","a","0","0","0","0","0","0","0","0","0","0","25","0","0","0","0","25","25","0","0","0","0","0","0","0","0","0","0","25","25","0","0","NA","25","25","25","NA","25","25","25","0","R","Wed Jan 13 14:06:07 2021","60000","60000","60000","60000","60000","60000","60000","60000","A template containing a practice and an experimental phase","yes","CCS_ACDMT_11012021.osexp","C:/Users/NIM-NPH-SAT/Desktop","no","mono","no","18","no","white","no","yes","768","legacy","25","25","C:/Users/NIM-NPH-SAT/Desktop/subject-10.csv","Y","legacy","Lentiform Loewenfeld","3.3.3","0","a","NA","space","NA","NA","space","NA","a","1784","NA","9380","NA","NA","14223","NA","1784","2","legacy","5","1024","2","48000","-16","experiment","10","even","NA","NA","NA","NA","11520","NA","12020","NA","134131","NA","73079","NA","195191","366260","NA","2137","NA","270478","366258","367566","NA","13079","NA","135191","NA","NA","74131","NA","196251","2130","363229","366761","270478","256255","NA","368470","370254","367262","NA","366134","368470","366258","adaptive_sets","20","38463","26","T26","yes","1360"
"77.77777777777777","77.77777777777777","1468.148148148148","1468.148148148148","black","yes","legacy","legacy","legacy","0","NA","uniform","1","undefined","undefined","1","a","0","0","0","0","0","0","0","0","0","0","26","0","0","0","0","26","26","0","0","0","0","0","0","0","0","0","0","26","26","0","0","NA","26","26","26","NA","26","26","26","1","R","Wed Jan 13 14:06:07 2021","60000","60000","60000","60000","60000","60000","60000","60000","A template containing a practice and an experimental phase","yes","CCS_ACDMT_11012021.osexp","C:/Users/NIM-NPH-SAT/Desktop","no","mono","no","18","no","white","no","yes","768","legacy","26","26","C:/Users/NIM-NPH-SAT/Desktop/subject-10.csv","Y","legacy","Lentiform Loewenfeld","3.3.3","0","a","NA","space","NA","NA","space","NA","a","1177","NA","9380","NA","NA","14223","NA","1177","2","legacy","5","1024","2","48000","-16","experiment","10","even","NA","NA","NA","NA","11520","NA","12020","NA","134131","NA","73079","NA","195191","370400","NA","2137","NA","270478","370398","371709","NA","13079","NA","135191","NA","NA","74131","NA","196251","2130","363229","370902","270478","256255","NA","372613","373790","371405","NA","370278","372613","370398","adaptive_sets","21","39640","27","T27","yes","1360"
"75","75","1447.0714285714287","1447.0714285714287","black","yes","legacy","legacy","legacy","0","NA","uniform","0","undefined","undefined","0","l","0","0","0","0","0","0","0","0","0","0","27","0","0","0","0","27","27","0","0","0","0","0","0","0","0","0","0","27","27","0","0","NA","27","27","27","NA","27","27","27","0","R","Wed Jan 13 14:06:07 2021","60000","60000","60000","60000","60000","60000","60000","60000","A template containing a practice and an experimental phase","yes","CCS_ACDMT_11012021.osexp","C:/Users/NIM-NPH-SAT/Desktop","no","mono","no","18","no","white","no","yes","768","legacy","27","27","C:/Users/NIM-NPH-SAT/Desktop/subject-10.csv","N","legacy","Lentiform Loewenfeld","3.3.3","0","a","NA","space","NA","NA","space","NA","a","878","NA","9380","NA","NA","14223","NA","878","2","legacy","6","1024","2","48000","-16","experiment","10","even","NA","NA","NA","NA","11520","NA","12020","NA","134131","NA","73079","NA","195191","373932","NA","2137","NA","270478","373930","375240","NA","13079","NA","135191","NA","NA","74131","NA","196251","2130","363229","374433","270478","256255","NA","376144","377022","374936","NA","373813","376144","373930","adaptive_sets","21","40518","28","T28","yes","1360"
"75.86206896551724","75.86206896551724","1429","1429","black","yes","legacy","legacy","legacy","0","NA","uniform","1","undefined","undefined","1","a","0","0","0","0","0","0","0","0","0","0","28","0","0","0","0","28","28","0","0","0","0","0","0","0","0","0","0","28","28","0","0","NA","28","28","28","NA","28","28","28","0","L","Wed Jan 13 14:06:07 2021","60000","60000","60000","60000","60000","60000","60000","60000","A template containing a practice and an experimental phase","yes","CCS_ACDMT_11012021.osexp","C:/Users/NIM-NPH-SAT/Desktop","no","mono","no","18","no","white","no","yes","768","legacy","28","28","C:/Users/NIM-NPH-SAT/Desktop/subject-10.csv","Y","legacy","Lentiform Loewenfeld","3.3.3","0","a","NA","space","NA","NA","space","NA","a","923","NA","9380","NA","NA","14223","NA","923","2","legacy","5","1024","2","48000","-16","experiment","10","even","NA","NA","NA","NA","11520","NA","12020","NA","134131","NA","73079","NA","195191","377167","NA","2137","NA","270478","377165","378475","NA","13079","NA","135191","NA","NA","74131","NA","196251","2130","377669","374433","270478","256255","NA","379379","380302","378170","NA","377041","379379","377165","adaptive_sets","22","41441","29","T29","yes","1360"
"73.33333333333333","73.33333333333333","1421.4333333333334","1421.4333333333334","black","yes","legacy","legacy","legacy","0","NA","uniform","0","undefined","undefined","0","l","0","0","0","0","0","0","0","0","0","0","29","0","0","0","0","29","29","0","0","0","0","0","0","0","0","0","0","29","29","0","0","NA","29","29","29","NA","29","29","29","1","R","Wed Jan 13 14:06:07 2021","60000","60000","60000","60000","60000","60000","60000","60000","A template containing a practice and an experimental phase","yes","CCS_ACDMT_11012021.osexp","C:/Users/NIM-NPH-SAT/Desktop","no","mono","no","18","no","white","no","yes","768","legacy","29","29","C:/Users/NIM-NPH-SAT/Desktop/subject-10.csv","N","legacy","Lentiform Loewenfeld","3.3.3","0","a","NA","space","NA","NA","space","NA","a","1202","NA","9380","NA","NA","14223","NA","1202","2","legacy","5","1024","2","48000","-16","experiment","10","even","NA","NA","NA","NA","11520","NA","12020","NA","134131","NA","73079","NA","195191","380442","NA","2137","NA","270478","380441","381748","NA","13079","NA","135191","NA","NA","74131","NA","196251","2130","377669","380943","270478","256255","NA","382652","383854","381444","NA","380324","382652","380441","adaptive_sets","22","42643","30","T30","yes","1360"
"74.19354838709677","74.19354838709677","1411.774193548387","1411.774193548387","black","yes","legacy","legacy","legacy","0","NA","uniform","1","undefined","undefined","1","l","0","0","0","0","0","0","0","0","0","0","30","0","0","0","0","30","30","0","0","0","0","0","0","0","0","0","0","30","30","0","0","NA","30","30","30","NA","30","30","30","0","L","Wed Jan 13 14:06:07 2021","60000","60000","60000","60000","60000","60000","60000","60000","A template containing a practice and an experimental phase","yes","CCS_ACDMT_11012021.osexp","C:/Users/NIM-NPH-SAT/Desktop","no","mono","no","18","no","white","no","yes","768","legacy","30","30","C:/Users/NIM-NPH-SAT/Desktop/subject-10.csv","N","legacy","Lentiform Loewenfeld","3.3.3","0","l","NA","space","NA","NA","space","NA","l","1122","NA","9380","NA","NA","14223","NA","1122","2","legacy","4","1024","2","48000","-16","experiment","10","even","NA","NA","NA","NA","11520","NA","12020","NA","134131","NA","73079","NA","195191","383994","NA","2137","NA","270478","383992","385300","NA","13079","NA","135191","NA","NA","74131","NA","196251","2130","384495","380943","270478","256255","NA","386204","387326","384996","NA","383875","386204","383992","adaptive_sets","23","43765","31","T31","yes","1360"
"75","75","1426.5625","1426.5625","black","yes","legacy","legacy","legacy","0","NA","uniform","1","undefined","undefined","1","a","0","0","0","0","0","0","0","0","0","0","31","0","0","0","0","31","31","0","0","0","0","0","0","0","0","0","0","31","31","0","0","NA","31","31","31","NA","31","31","31","1","L","Wed Jan 13 14:06:07 2021","60000","60000","60000","60000","60000","60000","60000","60000","A template containing a practice and an experimental phase","yes","CCS_ACDMT_11012021.osexp","C:/Users/NIM-NPH-SAT/Desktop","no","mono","no","18","no","white","no","yes","768","legacy","31","31","C:/Users/NIM-NPH-SAT/Desktop/subject-10.csv","Y","legacy","Lentiform Loewenfeld","3.3.3","0","a","NA","space","NA","NA","space","NA","a","1885","NA","9380","NA","NA","14223","NA","1885","2","legacy","4","1024","2","48000","-16","experiment","10","even","NA","NA","NA","NA","11520","NA","12020","NA","134131","NA","73079","NA","195191","387469","NA","2137","NA","270478","387467","388777","NA","13079","NA","135191","NA","NA","74131","NA","196251","2130","387971","380943","270478","256255","NA","389681","391566","388473","NA","387351","389681","387467","adaptive_sets","24","45650","32","T32","yes","1360"
"72.72727272727273","72.72727272727273","1407.5151515151515","1407.5151515151515","black","yes","legacy","legacy","legacy","0","NA","uniform","0","undefined","undefined","0","l","0","0","0","0","0","0","0","0","0","0","32","0","0","0","0","32","32","0","0","0","0","0","0","0","0","0","0","32","32","0","0","NA","32","32","32","NA","32","32","32","0","L","Wed Jan 13 14:06:07 2021","60000","60000","60000","60000","60000","60000","60000","60000","A template containing a practice and an experimental phase","yes","CCS_ACDMT_11012021.osexp","C:/Users/NIM-NPH-SAT/Desktop","no","mono","no","18","no","white","no","yes","768","legacy","32","32","C:/Users/NIM-NPH-SAT/Desktop/subject-10.csv","N","legacy","Lentiform Loewenfeld","3.3.3","0","a","NA","space","NA","NA","space","NA","a","798","NA","9380","NA","NA","14223","NA","798","2","legacy","5","1024","2","48000","-16","experiment","10","even","NA","NA","NA","NA","11520","NA","12020","NA","134131","NA","73079","NA","195191","391705","NA","2137","NA","270478","391703","393014","NA","13079","NA","135191","NA","NA","74131","NA","196251","2130","392206","380943","270478","256255","NA","393919","394718","392709","NA","391587","393918","391703","adaptive_sets","24","46448","33","T33","yes","1360"
"73.52941176470588","73.52941176470588","1408.9705882352941","1408.9705882352941","black","yes","legacy","legacy","legacy","0","NA","uniform","1","undefined","undefined","1","l","0","0","0","0","0","0","0","0","0","0","33","0","0","0","0","33","33","0","0","0","0","0","0","0","0","0","0","33","33","0","0","NA","33","33","33","NA","33","33","33","0","L","Wed Jan 13 14:06:07 2021","60000","60000","60000","60000","60000","60000","60000","60000","A template containing a practice and an experimental phase","yes","CCS_ACDMT_11012021.osexp","C:/Users/NIM-NPH-SAT/Desktop","no","mono","no","18","no","white","no","yes","768","legacy","33","33","C:/Users/NIM-NPH-SAT/Desktop/subject-10.csv","N","legacy","Lentiform Loewenfeld","3.3.3","0","l","NA","space","NA","NA","space","NA","l","1457","NA","9380","NA","NA","14223","NA","1457","2","legacy","4","1024","2","48000","-16","experiment","10","even","NA","NA","NA","NA","11520","NA","12020","NA","134131","NA","73079","NA","195191","394873","NA","2137","NA","270478","394871","396181","NA","13079","NA","135191","NA","NA","74131","NA","196251","2130","395374","380943","270478","256255","NA","397085","398542","395877","NA","394746","397085","394871","adaptive_sets","25","47905","34","T34","yes","1360"
"74.28571428571429","74.28571428571429","1403.8285714285714","1403.8285714285714","black","yes","legacy","legacy","legacy","0","NA","uniform","1","undefined","undefined","1","l","0","0","0","0","0","0","0","0","0","0","34","0","0","0","0","34","34","0","0","0","0","0","0","0","0","0","0","34","34","0","0","NA","34","34","34","NA","34","34","34","1","L","Wed Jan 13 14:06:07 2021","60000","60000","60000","60000","60000","60000","60000","60000","A template containing a practice and an experimental phase","yes","CCS_ACDMT_11012021.osexp","C:/Users/NIM-NPH-SAT/Desktop","no","mono","no","18","no","white","no","yes","768","legacy","34","34","C:/Users/NIM-NPH-SAT/Desktop/subject-10.csv","N","legacy","Lentiform Loewenfeld","3.3.3","0","l","NA","space","NA","NA","space","NA","l","1229","NA","9380","NA","NA","14223","NA","1229","2","legacy","4","1024","2","48000","-16","experiment","10","even","NA","NA","NA","NA","11520","NA","12020","NA","134131","NA","73079","NA","195191","398683","NA","2137","NA","270478","398682","399993","NA","13079","NA","135191","NA","NA","74131","NA","196251","2130","399184","380943","270478","256255","NA","400896","402126","399688","NA","398567","400896","398681","adaptive_sets","26","49134","35","T35","yes","1360"
"75","75","1388.611111111111","1388.611111111111","black","yes","legacy","legacy","legacy","0","NA","uniform","1","undefined","undefined","1","a","0","0","0","0","0","0","0","0","0","0","35","0","0","0","0","35","35","0","0","0","0","0","0","0","0","0","0","35","35","0","0","NA","35","35","35","NA","35","35","35","0","R","Wed Jan 13 14:06:07 2021","60000","60000","60000","60000","60000","60000","60000","60000","A template containing a practice and an experimental phase","yes","CCS_ACDMT_11012021.osexp","C:/Users/NIM-NPH-SAT/Desktop","no","mono","no","18","no","white","no","yes","768","legacy","35","35","C:/Users/NIM-NPH-SAT/Desktop/subject-10.csv","Y","legacy","Lentiform Loewenfeld","3.3.3","0","a","NA","space","NA","NA","space","NA","a","856","NA","9380","NA","NA","14223","NA","856","2","legacy","5","1024","2","48000","-16","experiment","10","even","NA","NA","NA","NA","11520","NA","12020","NA","134131","NA","73079","NA","195191","402262","NA","2137","NA","270478","402260","403566","NA","13079","NA","135191","NA","NA","74131","NA","196251","2130","399184","402763","270478","256255","NA","404469","405326","403263","NA","402144","404469","402260","adaptive_sets","27","49990","36","T36","yes","1360"
"75.67567567567568","75.67567567567568","1383.8108108108108","1383.8108108108108","black","yes","legacy","legacy","legacy","0","NA","uniform","1","undefined","undefined","1","l","0","0","0","0","0","0","0","0","0","0","36","0","0","0","0","36","36","0","0","0","0","0","0","0","0","0","0","36","36","0","0","NA","36","36","36","NA","36","36","36","1","R","Wed Jan 13 14:06:07 2021","60000","60000","60000","60000","60000","60000","60000","60000","A template containing a practice and an experimental phase","yes","CCS_ACDMT_11012021.osexp","C:/Users/NIM-NPH-SAT/Desktop","no","mono","no","18","no","white","no","yes","768","legacy","36","36","C:/Users/NIM-NPH-SAT/Desktop/subject-10.csv","N","legacy","Lentiform Loewenfeld","3.3.3","0","l","NA","space","NA","NA","space","NA","l","1211","NA","9380","NA","NA","14223","NA","1211","2","legacy","5","1024","2","48000","-16","experiment","10","even","NA","NA","NA","NA","11520","NA","12020","NA","134131","NA","73079","NA","195191","405472","NA","2137","NA","270478","405470","406778","NA","13079","NA","135191","NA","NA","74131","NA","196251","2130","399184","405973","270478","256255","NA","407682","408894","406474","NA","405350","407682","405470","adaptive_sets","28","51201","37","T37","yes","1360"
"73.6842105263158","73.6842105263158","1366.7631578947369","1366.7631578947369","black","yes","legacy","legacy","legacy","0","NA","uniform","0","undefined","undefined","0","l","0","0","0","0","0","0","0","0","0","0","37","0","0","0","0","37","37","0","0","0","0","0","0","0","0","0","0","37","37","0","0","NA","37","37","37","NA","37","37","37","0","R","Wed Jan 13 14:06:07 2021","60000","60000","60000","60000","60000","60000","60000","60000","A template containing a practice and an experimental phase","yes","CCS_ACDMT_11012021.osexp","C:/Users/NIM-NPH-SAT/Desktop","no","mono","no","18","no","white","no","yes","768","legacy","37","37","C:/Users/NIM-NPH-SAT/Desktop/subject-10.csv","N","legacy","Lentiform Loewenfeld","3.3.3","0","a","NA","space","NA","NA","space","NA","a","736","NA","9380","NA","NA","14223","NA","736","2","legacy","6","1024","2","48000","-16","experiment","10","even","NA","NA","NA","NA","11520","NA","12020","NA","134131","NA","73079","NA","195191","409048","NA","2137","NA","270478","409046","410357","NA","13079","NA","135191","NA","NA","74131","NA","196251","2130","399184","409550","270478","256255","NA","411261","411998","410053","NA","408918","411260","409046","adaptive_sets","28","51937","38","T38","yes","1360"
"74.35897435897436","74.35897435897436","1359.923076923077","1359.923076923077","black","yes","legacy","legacy","legacy","0","NA","uniform","1","undefined","undefined","1","a","0","0","0","0","0","0","0","0","0","0","38","0","0","0","0","38","38","0","0","0","0","0","0","0","0","0","0","38","38","0","0","NA","38","38","38","NA","38","38","38","0","R","Wed Jan 13 14:06:07 2021","60000","60000","60000","60000","60000","60000","60000","60000","A template containing a practice and an experimental phase","yes","CCS_ACDMT_11012021.osexp","C:/Users/NIM-NPH-SAT/Desktop","no","mono","no","18","no","white","no","yes","768","legacy","38","38","C:/Users/NIM-NPH-SAT/Desktop/subject-10.csv","Y","legacy","Lentiform Loewenfeld","3.3.3","0","a","NA","space","NA","NA","space","NA","a","1100","NA","9380","NA","NA","14223","NA","1100","2","legacy","5","1024","2","48000","-16","experiment","10","even","NA","NA","NA","NA","11520","NA","12020","NA","134131","NA","73079","NA","195191","412140","NA","2137","NA","270478","412138","413449","NA","13079","NA","135191","NA","NA","74131","NA","196251","2130","399184","412642","270478","256255","NA","414353","415454","413145","NA","412019","414353","412138","adaptive_sets","29","53037","39","T39","yes","1360"
"75","75","1358.925","1358.925","black","yes","legacy","legacy","legacy","0","NA","uniform","1","undefined","undefined","1","a","0","0","0","0","0","0","0","0","0","0","39","0","0","0","0","39","39","0","0","0","0","0","0","0","0","0","0","39","39","0","0","NA","39","39","39","NA","39","39","39","1","L","Wed Jan 13 14:06:07 2021","60000","60000","60000","60000","60000","60000","60000","60000","A template containing a practice and an experimental phase","yes","CCS_ACDMT_11012021.osexp","C:/Users/NIM-NPH-SAT/Desktop","no","mono","no","18","no","white","no","yes","768","legacy","39","39","C:/Users/NIM-NPH-SAT/Desktop/subject-10.csv","Y","legacy","Lentiform Loewenfeld","3.3.3","0","a","NA","space","NA","NA","space","NA","a","1320","NA","9380","NA","NA","14223","NA","1320","2","legacy","5","1024","2","48000","-16","experiment","10","even","NA","NA","NA","NA","11520","NA","12020","NA","134131","NA","73079","NA","195191","415603","NA","2137","NA","270478","415601","416912","NA","13079","NA","135191","NA","NA","74131","NA","196251","2130","416104","412642","270478","256255","NA","417814","419134","416607","NA","415479","417813","415601","adaptive_sets","30","54357","40","T40","yes","1360"
"73.17073170731707","73.17073170731707","1346.7317073170732","1346.7317073170732","black","yes","legacy","legacy","legacy","0","NA","uniform","0","undefined","undefined","0","l","0","0","0","0","0","0","0","0","0","0","40","0","0","0","0","40","40","0","0","0","0","0","0","0","0","0","0","40","40","0","0","NA","40","40","40","NA","40","40","40","0","L","Wed Jan 13 14:06:07 2021","60000","60000","60000","60000","60000","60000","60000","60000","A template containing a practice and an experimental phase","yes","CCS_ACDMT_11012021.osexp","C:/Users/NIM-NPH-SAT/Desktop","no","mono","no","18","no","white","no","yes","768","legacy","40","40","C:/Users/NIM-NPH-SAT/Desktop/subject-10.csv","N","legacy","Lentiform Loewenfeld","3.3.3","0","a","NA","space","NA","NA","space","NA","a","859","NA","9380","NA","NA","14223","NA","859","2","legacy","6","1024","2","48000","-16","experiment","10","even","NA","NA","NA","NA","11520","NA","12020","NA","134131","NA","73079","NA","195191","419278","NA","2137","NA","270478","419276","420587","NA","13079","NA","135191","NA","NA","74131","NA","196251","2130","419779","412642","270478","256255","NA","421491","422350","420283","NA","419155","421491","419276","adaptive_sets","30","55216","41","T41","yes","1360"
"71.42857142857143","71.42857142857143","1338.1666666666667","1338.1666666666667","black","yes","legacy","legacy","legacy","0","NA","uniform","0","undefined","undefined","0","l","0","0","0","0","0","0","0","0","0","0","41","0","0","0","0","41","41","0","0","0","0","0","0","0","0","0","0","41","41","0","0","NA","41","41","41","NA","41","41","41","0","L","Wed Jan 13 14:06:07 2021","60000","60000","60000","60000","60000","60000","60000","60000","A template containing a practice and an experimental phase","yes","CCS_ACDMT_11012021.osexp","C:/Users/NIM-NPH-SAT/Desktop","no","mono","no","18","no","white","no","yes","768","legacy","41","41","C:/Users/NIM-NPH-SAT/Desktop/subject-10.csv","N","legacy","Lentiform Loewenfeld","3.3.3","0","a","NA","space","NA","NA","space","NA","a","987","NA","9380","NA","NA","14223","NA","987","2","legacy","5","1024","2","48000","-16","experiment","10","even","NA","NA","NA","NA","11520","NA","12020","NA","134131","NA","73079","NA","195191","422497","NA","2137","NA","270478","422495","423803","NA","13079","NA","135191","NA","NA","74131","NA","196251","2130","422998","412642","270478","256255","NA","424707","425694","423499","NA","422374","424707","422495","adaptive_sets","30","56203","42","T42","yes","1360"
"72.09302325581395","72.09302325581395","1333.093023255814","1333.093023255814","black","yes","legacy","legacy","legacy","0","NA","uniform","1","undefined","undefined","1","l","0","0","0","0","0","0","0","0","0","0","42","0","0","0","0","42","42","0","0","0","0","0","0","0","0","0","0","42","42","0","0","NA","42","42","42","NA","42","42","42","0","R","Wed Jan 13 14:06:07 2021","60000","60000","60000","60000","60000","60000","60000","60000","A template containing a practice and an experimental phase","yes","CCS_ACDMT_11012021.osexp","C:/Users/NIM-NPH-SAT/Desktop","no","mono","no","18","no","white","no","yes","768","legacy","42","42","C:/Users/NIM-NPH-SAT/Desktop/subject-10.csv","N","legacy","Lentiform Loewenfeld","3.3.3","0","l","NA","space","NA","NA","space","NA","l","1120","NA","9380","NA","NA","14223","NA","1120","2","legacy","4","1024","2","48000","-16","experiment","10","even","NA","NA","NA","NA","11520","NA","12020","NA","134131","NA","73079","NA","195191","425834","NA","2137","NA","270478","425832","427141","NA","13079","NA","135191","NA","NA","74131","NA","196251","2130","422998","426335","270478","256255","NA","428045","429166","426837","NA","425710","428045","425832","adaptive_sets","31","57323","43","T43","yes","1360"
"72.72727272727273","72.72727272727273","1341.0681818181818","1341.0681818181818","black","yes","legacy","legacy","legacy","0","NA","uniform","1","undefined","undefined","1","l","0","0","0","0","0","0","0","0","0","0","43","0","0","0","0","43","43","0","0","0","0","0","0","0","0","0","0","43","43","0","0","NA","43","43","43","NA","43","43","43","1","R","Wed Jan 13 14:06:07 2021","60000","60000","60000","60000","60000","60000","60000","60000","A template containing a practice and an experimental phase","yes","CCS_ACDMT_11012021.osexp","C:/Users/NIM-NPH-SAT/Desktop","no","mono","no","18","no","white","no","yes","768","legacy","43","43","C:/Users/NIM-NPH-SAT/Desktop/subject-10.csv","N","legacy","Lentiform Loewenfeld","3.3.3","0","l","NA","space","NA","NA","space","NA","l","1684","NA","9380","NA","NA","14223","NA","1684","2","legacy","4","1024","2","48000","-16","experiment","10","even","NA","NA","NA","NA","11520","NA","12020","NA","134131","NA","73079","NA","195191","429319","NA","2137","NA","270478","429317","430625","NA","13079","NA","135191","NA","NA","74131","NA","196251","2130","422998","429820","270478","256255","NA","431529","433214","430321","NA","429193","431529","429317","adaptive_sets","32","59007","44","T44","yes","1360"
"73.33333333333333","73.33333333333333","1330","1330","black","yes","legacy","legacy","legacy","0","NA","uniform","1","undefined","undefined","1","a","0","0","0","0","0","0","0","0","0","0","44","0","0","0","0","44","44","0","0","0","0","0","0","0","0","0","0","44","44","0","0","NA","44","44","44","NA","44","44","44","0","R","Wed Jan 13 14:06:07 2021","60000","60000","60000","60000","60000","60000","60000","60000","A template containing a practice and an experimental phase","yes","CCS_ACDMT_11012021.osexp","C:/Users/NIM-NPH-SAT/Desktop","no","mono","no","18","no","white","no","yes","768","legacy","44","44","C:/Users/NIM-NPH-SAT/Desktop/subject-10.csv","Y","legacy","Lentiform Loewenfeld","3.3.3","0","a","NA","space","NA","NA","space","NA","a","843","NA","9380","NA","NA","14223","NA","843","2","legacy","5","1024","2","48000","-16","experiment","10","even","NA","NA","NA","NA","11520","NA","12020","NA","134131","NA","73079","NA","195191","433356","NA","2137","NA","270478","433355","434666","NA","13079","NA","135191","NA","NA","74131","NA","196251","2130","422998","433858","270478","256255","NA","435570","436414","434362","NA","433237","435570","433355","adaptive_sets","33","59850","45","T45","yes","1360"
"71.73913043478261","71.73913043478261","1317","1317","black","yes","legacy","legacy","legacy","0","NA","uniform","0","undefined","undefined","0","l","0","0","0","0","0","0","0","0","0","0","45","0","0","0","0","45","45","0","0","0","0","0","0","0","0","0","0","45","45","0","0","NA","45","45","45","NA","45","45","45","1","L","Wed Jan 13 14:06:07 2021","60000","60000","60000","60000","60000","60000","60000","60000","A template containing a practice and an experimental phase","yes","CCS_ACDMT_11012021.osexp","C:/Users/NIM-NPH-SAT/Desktop","no","mono","no","18","no","white","no","yes","768","legacy","45","45","C:/Users/NIM-NPH-SAT/Desktop/subject-10.csv","N","legacy","Lentiform Loewenfeld","3.3.3","0","a","NA","space","NA","NA","space","NA","a","732","NA","9380","NA","NA","14223","NA","732","2","legacy","5","1024","2","48000","-16","experiment","10","even","NA","NA","NA","NA","11520","NA","12020","NA","134131","NA","73079","NA","195191","436559","NA","2137","NA","270478","436557","437866","NA","13079","NA","135191","NA","NA","74131","NA","196251","2130","437061","433858","270478","256255","NA","438770","439502","437562","NA","436439","438770","436557","adaptive_sets","33","60582","46","T46","yes","1360"
"72.34042553191489","72.34042553191489","1309.1063829787233","1309.1063829787233","black","yes","legacy","legacy","legacy","0","NA","uniform","1","undefined","undefined","1","a","0","0","0","0","0","0","0","0","0","0","46","0","0","0","0","46","46","0","0","0","0","0","0","0","0","0","0","46","46","0","0","NA","46","46","46","NA","46","46","46","0","L","Wed Jan 13 14:06:07 2021","60000","60000","60000","60000","60000","60000","60000","60000","A template containing a practice and an experimental phase","yes","CCS_ACDMT_11012021.osexp","C:/Users/NIM-NPH-SAT/Desktop","no","mono","no","18","no","white","no","yes","768","legacy","46","46","C:/Users/NIM-NPH-SAT/Desktop/subject-10.csv","Y","legacy","Lentiform Loewenfeld","3.3.3","0","a","NA","space","NA","NA","space","NA","a","946","NA","9380","NA","NA","14223","NA","946","2","legacy","4","1024","2","48000","-16","experiment","10","even","NA","NA","NA","NA","11520","NA","12020","NA","134131","NA","73079","NA","195191","439641","NA","2137","NA","270478","439639","440947","NA","13079","NA","135191","NA","NA","74131","NA","196251","2130","440144","433858","270478","256255","NA","441851","442798","440646","NA","439522","441851","439639","adaptive_sets","34","61528","47","T47","yes","1360"
"72.91666666666667","72.91666666666667","1311.2708333333333","1311.2708333333333","black","yes","legacy","legacy","legacy","0","NA","uniform","1","undefined","undefined","1","a","0","0","0","0","0","0","0","0","0","0","47","0","0","0","0","47","47","0","0","0","0","0","0","0","0","0","0","47","47","0","0","NA","47","47","47","NA","47","47","47","1","R","Wed Jan 13 14:06:07 2021","60000","60000","60000","60000","60000","60000","60000","60000","A template containing a practice and an experimental phase","yes","CCS_ACDMT_11012021.osexp","C:/Users/NIM-NPH-SAT/Desktop","no","mono","no","18","no","white","no","yes","768","legacy","47","47","C:/Users/NIM-NPH-SAT/Desktop/subject-10.csv","Y","legacy","Lentiform Loewenfeld","3.3.3","0","a","NA","space","NA","NA","space","NA","a","1413","NA","9380","NA","NA","14223","NA","1413","2","legacy","4","1024","2","48000","-16","experiment","10","even","NA","NA","NA","NA","11520","NA","12020","NA","134131","NA","73079","NA","195191","442949","NA","2137","NA","270478","442947","444257","NA","13079","NA","135191","NA","NA","74131","NA","196251","2130","440144","443450","270478","256255","NA","445161","446575","443953","NA","442824","445161","442947","adaptive_sets","35","62941","48","T48","yes","1360"
"73.46938775510205","73.46938775510205","1302.408163265306","1302.408163265306","black","yes","legacy","legacy","legacy","0","NA","uniform","1","undefined","undefined","1","a","0","0","0","0","0","0","0","0","0","0","48","0","0","0","0","48","48","0","0","0","0","0","0","0","0","0","0","48","48","0","0","NA","48","48","48","NA","48","48","48","0","R","Wed Jan 13 14:06:07 2021","60000","60000","60000","60000","60000","60000","60000","60000","A template containing a practice and an experimental phase","yes","CCS_ACDMT_11012021.osexp","C:/Users/NIM-NPH-SAT/Desktop","no","mono","no","18","no","white","no","yes","768","legacy","48","48","C:/Users/NIM-NPH-SAT/Desktop/subject-10.csv","Y","legacy","Lentiform Loewenfeld","3.3.3","0","a","NA","space","NA","NA","space","NA","a","877","NA","9380","NA","NA","14223","NA","877","2","legacy","5","1024","2","48000","-16","experiment","10","even","NA","NA","NA","NA","11520","NA","12020","NA","134131","NA","73079","NA","195191","446719","NA","2137","NA","270478","446717","448024","NA","13079","NA","135191","NA","NA","74131","NA","196251","2130","440144","447220","270478","256255","NA","448928","449806","447722","NA","446600","448928","446717","adaptive_sets","36","63818","49","T49","yes","1360"
"72","72","1293.38","1293.38","black","yes","legacy","legacy","legacy","0","NA","uniform","0","undefined","undefined","0","l","0","0","0","0","0","0","0","0","0","0","49","0","0","0","0","49","49","0","0","0","0","0","0","0","0","0","0","49","49","0","0","NA","49","49","49","NA","49","49","49","1","L","Wed Jan 13 14:06:07 2021","60000","60000","60000","60000","60000","60000","60000","60000","A template containing a practice and an experimental phase","yes","CCS_ACDMT_11012021.osexp","C:/Users/NIM-NPH-SAT/Desktop","no","mono","no","18","no","white","no","yes","768","legacy","49","49","C:/Users/NIM-NPH-SAT/Desktop/subject-10.csv","N","legacy","Lentiform Loewenfeld","3.3.3","0","a","NA","space","NA","NA","space","NA","a","851","NA","9380","NA","NA","14223","NA","851","2","legacy","5","1024","2","48000","-16","experiment","10","even","NA","NA","NA","NA","11520","NA","12020","NA","134131","NA","73079","NA","195191","449958","NA","2137","NA","270478","449956","451267","NA","13079","NA","135191","NA","NA","74131","NA","196251","2130","450460","447220","270478","256255","NA","452171","453023","450963","NA","449829","452171","449956","adaptive_sets","36","64669","50","T50","yes","1360"
"72.54901960784314","72.54901960784314","1288.6470588235295","1288.6470588235295","black","yes","legacy","legacy","legacy","0","NA","uniform","1","undefined","undefined","1","a","0","0","0","0","0","0","0","0","0","0","50","0","0","0","0","50","50","0","0","0","0","0","0","0","0","0","0","50","50","0","0","NA","50","50","50","NA","50","50","50","0","R","Wed Jan 13 14:06:07 2021","60000","60000","60000","60000","60000","60000","60000","60000","A template containing a practice and an experimental phase","yes","CCS_ACDMT_11012021.osexp","C:/Users/NIM-NPH-SAT/Desktop","no","mono","no","18","no","white","no","yes","768","legacy","50","50","C:/Users/NIM-NPH-SAT/Desktop/subject-10.csv","Y","legacy","Lentiform Loewenfeld","3.3.3","0","a","NA","space","NA","NA","space","NA","a","1052","NA","9380","NA","NA","14223","NA","1052","2","legacy","4","1024","2","48000","-16","experiment","10","even","NA","NA","NA","NA","11520","NA","12020","NA","134131","NA","73079","NA","195191","453167","NA","2137","NA","270478","453166","454474","NA","13079","NA","135191","NA","NA","74131","NA","196251","2130","450460","453669","270478","256255","NA","455377","456430","454170","NA","453044","455377","453166","adaptive_sets","37","65721","51","T51","yes","1360"
"73.07692307692308","73.07692307692308","1289.5","1289.5","black","yes","legacy","legacy","legacy","0","NA","uniform","1","undefined","undefined","1","a","0","0","0","0","0","0","0","0","0","0","51","0","0","0","0","51","51","0","0","0","0","0","0","0","0","0","0","51","51","0","0","NA","51","51","51","NA","51","51","51","1","L","Wed Jan 13 14:06:07 2021","60000","60000","60000","60000","60000","60000","60000","60000","A template containing a practice and an experimental phase","yes","CCS_ACDMT_11012021.osexp","C:/Users/NIM-NPH-SAT/Desktop","no","mono","no","18","no","white","no","yes","768","legacy","51","51","C:/Users/NIM-NPH-SAT/Desktop/subject-10.csv","Y","legacy","Lentiform Loewenfeld","3.3.3","0","a","NA","space","NA","NA","space","NA","a","1333","NA","9380","NA","NA","14223","NA","1333","2","legacy","4","1024","2","48000","-16","experiment","10","even","NA","NA","NA","NA","11520","NA","12020","NA","134131","NA","73079","NA","195191","456580","NA","2137","NA","270478","456578","457888","NA","13079","NA","135191","NA","NA","74131","NA","196251","2130","457081","453669","270478","256255","NA","458792","460126","457584","NA","456453","458792","456578","adaptive_sets","38","67054","52","T52","yes","1360"
"73.58490566037736","73.58490566037736","1280.5471698113208","1280.5471698113208","black","yes","legacy","legacy","legacy","0","NA","uniform","1","undefined","undefined","1","a","0","0","0","0","0","0","0","0","0","0","52","0","0","0","0","52","52","0","0","0","0","0","0","0","0","0","0","52","52","0","0","NA","52","52","52","NA","52","52","52","0","R","Wed Jan 13 14:06:07 2021","60000","60000","60000","60000","60000","60000","60000","60000","A template containing a practice and an experimental phase","yes","CCS_ACDMT_11012021.osexp","C:/Users/NIM-NPH-SAT/Desktop","no","mono","no","18","no","white","no","yes","768","legacy","52","52","C:/Users/NIM-NPH-SAT/Desktop/subject-10.csv","Y","legacy","Lentiform Loewenfeld","3.3.3","0","a","NA","space","NA","NA","space","NA","a","815","NA","9380","NA","NA","14223","NA","815","2","legacy","5","1024","2","48000","-16","experiment","10","even","NA","NA","NA","NA","11520","NA","12020","NA","134131","NA","73079","NA","195191","460268","NA","2137","NA","270478","460266","461575","NA","13079","NA","135191","NA","NA","74131","NA","196251","2130","457081","460770","270478","256255","NA","462479","463295","461271","NA","460149","462479","460266","adaptive_sets","39","67869","53","T53","yes","1360"
"72.22222222222223","72.22222222222223","1270.7777777777778","1270.7777777777778","black","yes","legacy","legacy","legacy","0","NA","uniform","0","undefined","undefined","0","l","0","0","0","0","0","0","0","0","0","0","53","0","0","0","0","53","53","0","0","0","0","0","0","0","0","0","0","53","53","0","0","NA","53","53","53","NA","53","53","53","1","L","Wed Jan 13 14:06:07 2021","60000","60000","60000","60000","60000","60000","60000","60000","A template containing a practice and an experimental phase","yes","CCS_ACDMT_11012021.osexp","C:/Users/NIM-NPH-SAT/Desktop","no","mono","no","18","no","white","no","yes","768","legacy","53","53","C:/Users/NIM-NPH-SAT/Desktop/subject-10.csv","N","legacy","Lentiform Loewenfeld","3.3.3","0","a","NA","space","NA","NA","space","NA","a","753","NA","9380","NA","NA","14223","NA","753","2","legacy","5","1024","2","48000","-16","experiment","10","even","NA","NA","NA","NA","11520","NA","12020","NA","134131","NA","73079","NA","195191","463435","NA","2137","NA","270478","463433","464741","NA","13079","NA","135191","NA","NA","74131","NA","196251","2130","463936","460770","270478","256255","NA","465644","466398","464437","NA","463315","465644","463433","adaptive_sets","39","68622","54","T54","yes","1360"
"70.9090909090909","70.9090909090909","1275.2727272727273","1275.2727272727273","black","yes","legacy","legacy","legacy","0","NA","uniform","0","undefined","undefined","0","l","0","0","0","0","0","0","0","0","0","0","54","0","0","0","0","54","54","0","0","0","0","0","0","0","0","0","0","54","54","0","0","NA","54","54","54","NA","54","54","54","0","R","Wed Jan 13 14:06:07 2021","60000","60000","60000","60000","60000","60000","60000","60000","A template containing a practice and an experimental phase","yes","CCS_ACDMT_11012021.osexp","C:/Users/NIM-NPH-SAT/Desktop","no","mono","no","18","no","white","no","yes","768","legacy","54","54","C:/Users/NIM-NPH-SAT/Desktop/subject-10.csv","N","legacy","Lentiform Loewenfeld","3.3.3","0","a","NA","space","NA","NA","space","NA","a","1518","NA","9380","NA","NA","14223","NA","1518","2","legacy","4","1024","2","48000","-16","experiment","10","even","NA","NA","NA","NA","11520","NA","12020","NA","134131","NA","73079","NA","195191","466543","NA","2137","NA","270478","466541","467849","NA","13079","NA","135191","NA","NA","74131","NA","196251","2130","463936","467044","270478","256255","NA","468752","470270","467545","NA","466425","468752","466541","adaptive_sets","39","70140","55","T55","yes","1360"
"71.42857142857143","71.42857142857143","1273.392857142857","1273.392857142857","black","yes","legacy","legacy","legacy","0","NA","uniform","1","undefined","undefined","1","l","0","0","0","0","0","0","0","0","0","0","55","0","0","0","0","55","55","0","0","0","0","0","0","0","0","0","0","55","55","0","0","NA","55","55","55","NA","55","55","55","0","L","Wed Jan 13 14:06:07 2021","60000","60000","60000","60000","60000","60000","60000","60000","A template containing a practice and an experimental phase","yes","CCS_ACDMT_11012021.osexp","C:/Users/NIM-NPH-SAT/Desktop","no","mono","no","18","no","white","no","yes","768","legacy","55","55","C:/Users/NIM-NPH-SAT/Desktop/subject-10.csv","N","legacy","Lentiform Loewenfeld","3.3.3","0","l","NA","space","NA","NA","space","NA","l","1170","NA","9380","NA","NA","14223","NA","1170","2","legacy","3","1024","2","48000","-16","experiment","10","even","NA","NA","NA","NA","11520","NA","12020","NA","134131","NA","73079","NA","195191","470411","NA","2137","NA","270478","470410","471716","NA","13079","NA","135191","NA","NA","74131","NA","196251","2130","470912","467044","270478","256255","NA","472620","473790","471413","NA","470293","472620","470409","adaptive_sets","40","71310","56","T56","yes","1360"
"71.9298245614035","71.9298245614035","1272.7894736842106","1272.7894736842106","black","yes","legacy","legacy","legacy","0","NA","uniform","1","undefined","undefined","1","l","0","0","0","0","0","0","0","0","0","0","56","0","0","0","0","56","56","0","0","0","0","0","0","0","0","0","0","56","56","0","0","NA","56","56","56","NA","56","56","56","1","R","Wed Jan 13 14:06:07 2021","60000","60000","60000","60000","60000","60000","60000","60000","A template containing a practice and an experimental phase","yes","CCS_ACDMT_11012021.osexp","C:/Users/NIM-NPH-SAT/Desktop","no","mono","no","18","no","white","no","yes","768","legacy","56","56","C:/Users/NIM-NPH-SAT/Desktop/subject-10.csv","N","legacy","Lentiform Loewenfeld","3.3.3","0","l","NA","space","NA","NA","space","NA","l","1239","NA","9380","NA","NA","14223","NA","1239","2","legacy","3","1024","2","48000","-16","experiment","10","even","NA","NA","NA","NA","11520","NA","12020","NA","134131","NA","73079","NA","195191","473939","NA","2137","NA","270478","473937","475247","NA","13079","NA","135191","NA","NA","74131","NA","196251","2130","470912","474441","270478","256255","NA","476151","477390","474945","NA","473819","476151","473937","adaptive_sets","41","72549","57","T57","yes","1360"
"72.41379310344827","72.41379310344827","1275.6206896551723","1275.6206896551723","black","yes","legacy","legacy","legacy","0","NA","uniform","1","undefined","undefined","1","a","0","0","0","0","0","0","0","0","0","0","57","0","0","0","0","57","57","0","0","0","0","0","0","0","0","0","0","57","57","0","0","NA","57","57","57","NA","57","57","57","0","L","Wed Jan 13 14:06:07 2021","60000","60000","60000","60000","60000","60000","60000","60000","A template containing a practice and an experimental phase","yes","CCS_ACDMT_11012021.osexp","C:/Users/NIM-NPH-SAT/Desktop","no","mono","no","18","no","white","no","yes","768","legacy","57","57","C:/Users/NIM-NPH-SAT/Desktop/subject-10.csv","Y","legacy","Lentiform Loewenfeld","3.3.3","0","a","NA","space","NA","NA","space","NA","a","1437","NA","9380","NA","NA","14223","NA","1437","2","legacy","4","1024","2","48000","-16","experiment","10","even","NA","NA","NA","NA","11520","NA","12020","NA","134131","NA","73079","NA","195191","477532","NA","2137","NA","270478","477531","478842","NA","13079","NA","135191","NA","NA","74131","NA","196251","2130","478034","474441","270478","256255","NA","479745","481182","478537","NA","477412","479745","477531","adaptive_sets","42","73986","58","T58","yes","1360"
"72.88135593220339","72.88135593220339","1278.949152542373","1278.949152542373","black","yes","legacy","legacy","legacy","0","NA","uniform","1","undefined","undefined","1","a","0","0","0","0","0","0","0","0","0","0","58","0","0","0","0","58","58","0","0","0","0","0","0","0","0","0","0","58","58","0","0","NA","58","58","58","NA","58","58","58","1","L","Wed Jan 13 14:06:07 2021","60000","60000","60000","60000","60000","60000","60000","60000","A template containing a practice and an experimental phase","yes","CCS_ACDMT_11012021.osexp","C:/Users/NIM-NPH-SAT/Desktop","no","mono","no","18","no","white","no","yes","768","legacy","58","58","C:/Users/NIM-NPH-SAT/Desktop/subject-10.csv","Y","legacy","Lentiform Loewenfeld","3.3.3","0","a","NA","space","NA","NA","space","NA","a","1472","NA","9380","NA","NA","14223","NA","1472","2","legacy","4","1024","2","48000","-16","experiment","10","even","NA","NA","NA","NA","11520","NA","12020","NA","134131","NA","73079","NA","195191","481324","NA","2137","NA","270478","481322","482629","NA","13079","NA","135191","NA","NA","74131","NA","196251","2130","481825","474441","270478","256255","NA","483533","485006","482326","NA","481205","483533","481322","adaptive_sets","43","75458","59","T59","yes","1360"
"73.33333333333333","73.33333333333333","1273.8166666666666","1273.8166666666666","black","yes","legacy","legacy","legacy","0","NA","uniform","1","undefined","undefined","1","a","0","0","0","0","0","0","0","0","0","0","59","0","0","0","0","59","59","0","0","0","0","0","0","0","0","0","0","59","59","0","0","NA","59","59","59","NA","59","59","59","0","L","Wed Jan 13 14:06:07 2021","60000","60000","60000","60000","60000","60000","60000","60000","A template containing a practice and an experimental phase","yes","CCS_ACDMT_11012021.osexp","C:/Users/NIM-NPH-SAT/Desktop","no","mono","no","18","no","white","no","yes","768","legacy","59","59","C:/Users/NIM-NPH-SAT/Desktop/subject-10.csv","Y","legacy","Lentiform Loewenfeld","3.3.3","0","a","NA","space","NA","NA","space","NA","a","971","NA","9380","NA","NA","14223","NA","971","2","legacy","5","1024","2","48000","-16","experiment","10","even","NA","NA","NA","NA","11520","NA","12020","NA","134131","NA","73079","NA","195191","485153","NA","2137","NA","270478","485151","486460","NA","13079","NA","135191","NA","NA","74131","NA","196251","2130","485654","474441","270478","256255","NA","487363","488335","486156","NA","485035","487363","485151","adaptive_sets","44","76429","60","T60","yes","1360"
"72.1311475409836","72.1311475409836","1272","1272","black","yes","legacy","legacy","legacy","0","NA","uniform","0","undefined","undefined","0","l","0","0","0","0","0","0","0","0","0","0","60","0","0","0","0","60","60","0","0","0","0","0","0","0","0","0","0","60","60","0","0","NA","60","60","60","NA","60","60","60","1","L","Wed Jan 13 14:06:07 2021","60000","60000","60000","60000","60000","60000","60000","60000","A template containing a practice and an experimental phase","yes","CCS_ACDMT_11012021.osexp","C:/Users/NIM-NPH-SAT/Desktop","no","mono","no","18","no","white","no","yes","768","legacy","60","60","C:/Users/NIM-NPH-SAT/Desktop/subject-10.csv","N","legacy","Lentiform Loewenfeld","3.3.3","0","a","NA","space","NA","NA","space","NA","a","1163","NA","9380","NA","NA","14223","NA","1163","2","legacy","5","1024","2","48000","-16","experiment","10","even","NA","NA","NA","NA","11520","NA","12020","NA","134131","NA","73079","NA","195191","488479","NA","2137","NA","270478","488477","489786","NA","13079","NA","135191","NA","NA","74131","NA","196251","2130","488981","474441","270478","256255","NA","490690","491854","489482","NA","488360","490690","488477","adaptive_sets","44","77592","61","T61","yes","1360"
"72.58064516129032","72.58064516129032","1266.6290322580646","1266.6290322580646","black","yes","legacy","legacy","legacy","0","NA","uniform","1","undefined","undefined","1","a","0","0","0","0","0","0","0","0","0","0","61","0","0","0","0","61","61","0","0","0","0","0","0","0","0","0","0","61","61","0","0","NA","61","61","61","NA","61","61","61","0","R","Wed Jan 13 14:06:07 2021","60000","60000","60000","60000","60000","60000","60000","60000","A template containing a practice and an experimental phase","yes","CCS_ACDMT_11012021.osexp","C:/Users/NIM-NPH-SAT/Desktop","no","mono","no","18","no","white","no","yes","768","legacy","61","61","C:/Users/NIM-NPH-SAT/Desktop/subject-10.csv","Y","legacy","Lentiform Loewenfeld","3.3.3","0","a","NA","space","NA","NA","space","NA","a","939","NA","9380","NA","NA","14223","NA","939","2","legacy","4","1024","2","48000","-16","experiment","10","even","NA","NA","NA","NA","11520","NA","12020","NA","134131","NA","73079","NA","195191","492001","NA","2137","NA","270478","491999","493307","NA","13079","NA","135191","NA","NA","74131","NA","196251","2130","488981","492502","270478","256255","NA","494211","495151","493003","NA","491876","494211","491999","adaptive_sets","45","78531","62","T62","yes","1360"
"73.01587301587301","73.01587301587301","1258.7301587301588","1258.7301587301588","black","yes","legacy","legacy","legacy","0","NA","uniform","1","undefined","undefined","1","a","0","0","0","0","0","0","0","0","0","0","62","0","0","0","0","62","62","0","0","0","0","0","0","0","0","0","0","62","62","0","0","NA","62","62","62","NA","62","62","62","1","R","Wed Jan 13 14:06:07 2021","60000","60000","60000","60000","60000","60000","60000","60000","A template containing a practice and an experimental phase","yes","CCS_ACDMT_11012021.osexp","C:/Users/NIM-NPH-SAT/Desktop","no","mono","no","18","no","white","no","yes","768","legacy","62","62","C:/Users/NIM-NPH-SAT/Desktop/subject-10.csv","Y","legacy","Lentiform Loewenfeld","3.3.3","0","a","NA","space","NA","NA","space","NA","a","769","NA","9380","NA","NA","14223","NA","769","2","legacy","4","1024","2","48000","-16","experiment","10","even","NA","NA","NA","NA","11520","NA","12020","NA","134131","NA","73079","NA","195191","495291","NA","2137","NA","270478","495289","496596","NA","13079","NA","135191","NA","NA","74131","NA","196251","2130","488981","495792","270478","256255","NA","497500","498270","496293","NA","495172","497499","495289","adaptive_sets","46","79300","63","T63","yes","1360"
"73.4375","73.4375","1254.984375","1254.984375","black","yes","legacy","legacy","legacy","0","NA","uniform","1","undefined","undefined","1","a","0","0","0","0","0","0","0","0","0","0","63","0","0","0","0","63","63","0","0","0","0","0","0","0","0","0","0","63","63","0","0","NA","63","63","63","NA","63","63","63","0","R","Wed Jan 13 14:06:07 2021","60000","60000","60000","60000","60000","60000","60000","60000","A template containing a practice and an experimental phase","yes","CCS_ACDMT_11012021.osexp","C:/Users/NIM-NPH-SAT/Desktop","no","mono","no","18","no","white","no","yes","768","legacy","63","63","C:/Users/NIM-NPH-SAT/Desktop/subject-10.csv","Y","legacy","Lentiform Loewenfeld","3.3.3","0","a","NA","space","NA","NA","space","NA","a","1019","NA","9380","NA","NA","14223","NA","1019","2","legacy","5","1024","2","48000","-16","experiment","10","even","NA","NA","NA","NA","11520","NA","12020","NA","134131","NA","73079","NA","195191","498414","NA","2137","NA","270478","498413","499723","NA","13079","NA","135191","NA","NA","74131","NA","196251","2130","488981","498915","270478","256255","NA","500627","501646","499418","NA","498295","500627","498413","adaptive_sets","47","80319","64","T64","yes","1360"
"73.84615384615384","73.84615384615384","1247.9538461538461","1247.9538461538461","black","yes","legacy","legacy","legacy","0","NA","uniform","1","undefined","undefined","1","a","0","0","0","0","0","0","0","0","0","0","64","0","0","0","0","64","64","0","0","0","0","0","0","0","0","0","0","64","64","0","0","NA","64","64","64","NA","64","64","64","1","L","Wed Jan 13 14:06:07 2021","60000","60000","60000","60000","60000","60000","60000","60000","A template containing a practice and an experimental phase","yes","CCS_ACDMT_11012021.osexp","C:/Users/NIM-NPH-SAT/Desktop","no","mono","no","18","no","white","no","yes","768","legacy","64","64","C:/Users/NIM-NPH-SAT/Desktop/subject-10.csv","Y","legacy","Lentiform Loewenfeld","3.3.3","0","a","NA","space","NA","NA","space","NA","a","798","NA","9380","NA","NA","14223","NA","798","2","legacy","5","1024","2","48000","-16","experiment","10","even","NA","NA","NA","NA","11520","NA","12020","NA","134131","NA","73079","NA","195191","501790","NA","2137","NA","270478","501788","503096","NA","13079","NA","135191","NA","NA","74131","NA","196251","2130","502291","498915","270478","256255","NA","503999","504798","502792","NA","501671","503999","501788","adaptive_sets","48","81117","65","T65","yes","1360"
"74.24242424242425","74.24242424242425","1246.7272727272727","1246.7272727272727","black","yes","legacy","legacy","legacy","0","NA","uniform","1","undefined","undefined","1","a","0","0","0","0","0","0","0","0","0","0","65","0","0","0","0","65","65","0","0","0","0","0","0","0","0","0","0","65","65","0","0","NA","65","65","65","NA","65","65","65","0","R","Wed Jan 13 14:06:07 2021","60000","60000","60000","60000","60000","60000","60000","60000","A template containing a practice and an experimental phase","yes","CCS_ACDMT_11012021.osexp","C:/Users/NIM-NPH-SAT/Desktop","no","mono","no","18","no","white","no","yes","768","legacy","65","65","C:/Users/NIM-NPH-SAT/Desktop/subject-10.csv","Y","legacy","Lentiform Loewenfeld","3.3.3","0","a","NA","space","NA","NA","space","NA","a","1167","NA","9380","NA","NA","14223","NA","1167","2","legacy","6","1024","2","48000","-16","experiment","10","even","NA","NA","NA","NA","11520","NA","12020","NA","134131","NA","73079","NA","195191","504941","NA","2137","NA","270478","504940","506248","NA","13079","NA","135191","NA","NA","74131","NA","196251","2130","502291","505442","270478","256255","NA","507151","508319","505944","NA","504824","507151","504940","adaptive_sets","49","82284","66","T66","yes","1360"
"73.13432835820896","73.13432835820896","1238.8805970149253","1238.8805970149253","black","yes","legacy","legacy","legacy","0","NA","uniform","0","undefined","undefined","0","l","0","0","0","0","0","0","0","0","0","0","66","0","0","0","0","66","66","0","0","0","0","0","0","0","0","0","0","66","66","0","0","NA","66","66","66","NA","66","66","66","1","L","Wed Jan 13 14:06:07 2021","60000","60000","60000","60000","60000","60000","60000","60000","A template containing a practice and an experimental phase","yes","CCS_ACDMT_11012021.osexp","C:/Users/NIM-NPH-SAT/Desktop","no","mono","no","18","no","white","no","yes","768","legacy","66","66","C:/Users/NIM-NPH-SAT/Desktop/subject-10.csv","N","legacy","Lentiform Loewenfeld","3.3.3","0","a","NA","space","NA","NA","space","NA","a","721","NA","9380","NA","NA","14223","NA","721","2","legacy","6","1024","2","48000","-16","experiment","10","even","NA","NA","NA","NA","11520","NA","12020","NA","134131","NA","73079","NA","195191","508460","NA","2137","NA","270478","508458","509765","NA","13079","NA","135191","NA","NA","74131","NA","196251","2130","508961","505442","270478","256255","NA","510669","511390","509462","NA","508342","510668","508458","adaptive_sets","49","83005","67","T67","yes","1360"
"73.52941176470588","73.52941176470588","1234.9705882352941","1234.9705882352941","black","yes","legacy","legacy","legacy","0","NA","uniform","1","undefined","undefined","1","a","0","0","0","0","0","0","0","0","0","0","67","0","0","0","0","67","67","0","0","0","0","0","0","0","0","0","0","67","67","0","0","NA","67","67","67","NA","67","67","67","0","R","Wed Jan 13 14:06:07 2021","60000","60000","60000","60000","60000","60000","60000","60000","A template containing a practice and an experimental phase","yes","CCS_ACDMT_11012021.osexp","C:/Users/NIM-NPH-SAT/Desktop","no","mono","no","18","no","white","no","yes","768","legacy","67","67","C:/Users/NIM-NPH-SAT/Desktop/subject-10.csv","Y","legacy","Lentiform Loewenfeld","3.3.3","0","a","NA","space","NA","NA","space","NA","a","973","NA","9380","NA","NA","14223","NA","973","2","legacy","5","1024","2","48000","-16","experiment","10","even","NA","NA","NA","NA","11520","NA","12020","NA","134131","NA","73079","NA","195191","511534","NA","2137","NA","270478","511533","512841","NA","13079","NA","135191","NA","NA","74131","NA","196251","2130","508961","512035","270478","256255","NA","513745","514719","512537","NA","511417","513745","511533","adaptive_sets","50","83978","68","T68","yes","1360"
"73.91304347826087","73.91304347826087","1227.9565217391305","1227.9565217391305","black","yes","legacy","legacy","legacy","0","NA","uniform","1","undefined","undefined","1","a","0","0","0","0","0","0","0","0","0","0","68","0","0","0","0","68","68","0","0","0","0","0","0","0","0","0","0","68","68","0","0","NA","68","68","68","NA","68","68","68","1","R","Wed Jan 13 14:06:07 2021","60000","60000","60000","60000","60000","60000","60000","60000","A template containing a practice and an experimental phase","yes","CCS_ACDMT_11012021.osexp","C:/Users/NIM-NPH-SAT/Desktop","no","mono","no","18","no","white","no","yes","768","legacy","68","68","C:/Users/NIM-NPH-SAT/Desktop/subject-10.csv","Y","legacy","Lentiform Loewenfeld","3.3.3","0","a","NA","space","NA","NA","space","NA","a","751","NA","9380","NA","NA","14223","NA","751","2","legacy","5","1024","2","48000","-16","experiment","10","even","NA","NA","NA","NA","11520","NA","12020","NA","134131","NA","73079","NA","195191","514861","NA","2137","NA","270478","514860","516167","NA","13079","NA","135191","NA","NA","74131","NA","196251","2130","508961","515362","270478","256255","NA","517071","517822","515863","NA","514744","517070","514860","adaptive_sets","51","84729","69","T69","yes","1360"
"72.85714285714286","72.85714285714286","1238.9857142857143","1238.9857142857143","black","yes","legacy","legacy","legacy","0","NA","uniform","0","undefined","undefined","0","l","0","0","0","0","0","0","0","0","0","0","69","0","0","0","0","69","69","0","0","0","0","0","0","0","0","0","0","69","69","0","0","NA","69","69","69","NA","69","69","69","0","R","Wed Jan 13 14:06:07 2021","60000","60000","60000","60000","60000","60000","60000","60000","A template containing a practice and an experimental phase","yes","CCS_ACDMT_11012021.osexp","C:/Users/NIM-NPH-SAT/Desktop","no","mono","no","18","no","white","no","yes","768","legacy","69","69","C:/Users/NIM-NPH-SAT/Desktop/subject-10.csv","N","legacy","Lentiform Loewenfeld","3.3.3","0","None","NA","space","NA","NA","space","NA","None","2000","NA","9380","NA","NA","14223","NA","2000","2","legacy","6","1024","2","48000","-16","experiment","10","even","NA","NA","NA","NA","11520","NA","12020","NA","134131","NA","73079","NA","195191","517964","NA","2137","NA","270478","517962","519273","NA","13079","NA","135191","NA","NA","74131","NA","196251","2130","508961","518465","270478","256255","NA","520177","522177","518968","NA","517845","520177","517962","adaptive_sets","51","86729","70","T70","yes","1360"
"73.2394366197183","73.2394366197183","1235.887323943662","1235.887323943662","black","yes","legacy","legacy","legacy","0","NA","uniform","1","undefined","undefined","1","l","0","0","0","0","0","0","0","0","0","0","70","0","0","0","0","70","70","0","0","0","0","0","0","0","0","0","0","70","70","0","0","NA","70","70","70","NA","70","70","70","0","R","Wed Jan 13 14:06:07 2021","60000","60000","60000","60000","60000","60000","60000","60000","A template containing a practice and an experimental phase","yes","CCS_ACDMT_11012021.osexp","C:/Users/NIM-NPH-SAT/Desktop","no","mono","no","18","no","white","no","yes","768","legacy","70","70","C:/Users/NIM-NPH-SAT/Desktop/subject-10.csv","N","legacy","Lentiform Loewenfeld","3.3.3","0","l","NA","space","NA","NA","space","NA","l","1019","NA","9380","NA","NA","14223","NA","1019","2","legacy","5","1024","2","48000","-16","experiment","10","even","NA","NA","NA","NA","11520","NA","12020","NA","134131","NA","73079","NA","195191","522323","NA","2137","NA","270478","522322","523628","NA","13079","NA","135191","NA","NA","74131","NA","196251","2130","508961","522824","270478","256255","NA","524531","525550","523325","NA","522205","524531","522322","adaptive_sets","52","87748","71","T71","yes","1360"
"73.61111111111111","73.61111111111111","1235.986111111111","1235.986111111111","black","yes","legacy","legacy","legacy","0","NA","uniform","1","undefined","undefined","1","a","0","0","0","0","0","0","0","0","0","0","71","0","0","0","0","71","71","0","0","0","0","0","0","0","0","0","0","71","71","0","0","NA","71","71","71","NA","71","71","71","1","L","Wed Jan 13 14:06:07 2021","60000","60000","60000","60000","60000","60000","60000","60000","A template containing a practice and an experimental phase","yes","CCS_ACDMT_11012021.osexp","C:/Users/NIM-NPH-SAT/Desktop","no","mono","no","18","no","white","no","yes","768","legacy","71","71","C:/Users/NIM-NPH-SAT/Desktop/subject-10.csv","Y","legacy","Lentiform Loewenfeld","3.3.3","0","a","NA","space","NA","NA","space","NA","a","1243","NA","9380","NA","NA","14223","NA","1243","2","legacy","5","1024","2","48000","-16","experiment","10","even","NA","NA","NA","NA","11520","NA","12020","NA","134131","NA","73079","NA","195191","525695","NA","2137","NA","270478","525693","527003","NA","13079","NA","135191","NA","NA","74131","NA","196251","2130","526196","522824","270478","256255","NA","527907","529151","526699","NA","525573","527907","525693","adaptive_sets","53","88991","72","T72","yes","1360"
"73.97260273972603","73.97260273972603","1227.1917808219177","1227.1917808219177","black","yes","legacy","legacy","legacy","0","NA","uniform","1","undefined","undefined","1","a","0","0","0","0","0","0","0","0","0","0","72","0","0","0","0","72","72","0","0","0","0","0","0","0","0","0","0","72","72","0","0","NA","72","72","72","NA","72","72","72","0","R","Wed Jan 13 14:06:07 2021","60000","60000","60000","60000","60000","60000","60000","60000","A template containing a practice and an experimental phase","yes","CCS_ACDMT_11012021.osexp","C:/Users/NIM-NPH-SAT/Desktop","no","mono","no","18","no","white","no","yes","768","legacy","72","72","C:/Users/NIM-NPH-SAT/Desktop/subject-10.csv","Y","legacy","Lentiform Loewenfeld","3.3.3","0","a","NA","space","NA","NA","space","NA","a","594","NA","9380","NA","NA","14223","NA","594","2","legacy","6","1024","2","48000","-16","experiment","10","even","NA","NA","NA","NA","11520","NA","12020","NA","134131","NA","73079","NA","195191","529288","NA","2137","NA","270478","529286","530596","NA","13079","NA","135191","NA","NA","74131","NA","196251","2130","526196","529791","270478","256255","NA","531500","532095","530292","NA","529169","531500","529286","adaptive_sets","54","89585","73","T73","yes","1360"
"74.32432432432432","74.32432432432432","1222.0405405405406","1222.0405405405406","black","yes","legacy","legacy","legacy","0","NA","uniform","1","undefined","undefined","1","a","0","0","0","0","0","0","0","0","0","0","73","0","0","0","0","73","73","0","0","0","0","0","0","0","0","0","0","73","73","0","0","NA","73","73","73","NA","73","73","73","1","R","Wed Jan 13 14:06:07 2021","60000","60000","60000","60000","60000","60000","60000","60000","A template containing a practice and an experimental phase","yes","CCS_ACDMT_11012021.osexp","C:/Users/NIM-NPH-SAT/Desktop","no","mono","no","18","no","white","no","yes","768","legacy","73","73","C:/Users/NIM-NPH-SAT/Desktop/subject-10.csv","Y","legacy","Lentiform Loewenfeld","3.3.3","0","a","NA","space","NA","NA","space","NA","a","846","NA","9380","NA","NA","14223","NA","846","2","legacy","6","1024","2","48000","-16","experiment","10","even","NA","NA","NA","NA","11520","NA","12020","NA","134131","NA","73079","NA","195191","532237","NA","2137","NA","270478","532235","533544","NA","13079","NA","135191","NA","NA","74131","NA","196251","2130","526196","532738","270478","256255","NA","534447","535294","533239","NA","532117","534447","532235","adaptive_sets","55","90431","74","T74","yes","1360"
"73.33333333333333","73.33333333333333","1217.1466666666668","1217.1466666666668","black","yes","legacy","legacy","legacy","0","NA","uniform","0","undefined","undefined","0","l","0","0","0","0","0","0","0","0","0","0","74","0","0","0","0","74","74","0","0","0","0","0","0","0","0","0","0","74","74","0","0","NA","74","74","74","NA","74","74","74","0","R","Wed Jan 13 14:06:07 2021","60000","60000","60000","60000","60000","60000","60000","60000","A template containing a practice and an experimental phase","yes","CCS_ACDMT_11012021.osexp","C:/Users/NIM-NPH-SAT/Desktop","no","mono","no","18","no","white","no","yes","768","legacy","74","74","C:/Users/NIM-NPH-SAT/Desktop/subject-10.csv","N","legacy","Lentiform Loewenfeld","3.3.3","0","a","NA","space","NA","NA","space","NA","a","855","NA","9380","NA","NA","14223","NA","855","2","legacy","7","1024","2","48000","-16","experiment","10","even","NA","NA","NA","NA","11520","NA","12020","NA","134131","NA","73079","NA","195191","535444","NA","2137","NA","270478","535443","536750","NA","13079","NA","135191","NA","NA","74131","NA","196251","2130","526196","535945","270478","256255","NA","537654","538510","536446","NA","535327","537654","535443","adaptive_sets","55","91286","75","T75","yes","1360"
"73.6842105263158","73.6842105263158","1209.9342105263158","1209.9342105263158","black","yes","legacy","legacy","legacy","0","NA","uniform","1","undefined","undefined","1","a","0","0","0","0","0","0","0","0","0","0","75","0","0","0","0","75","75","0","0","0","0","0","0","0","0","0","0","75","75","0","0","NA","75","75","75","NA","75","75","75","0","R","Wed Jan 13 14:06:07 2021","60000","60000","60000","60000","60000","60000","60000","60000","A template containing a practice and an experimental phase","yes","CCS_ACDMT_11012021.osexp","C:/Users/NIM-NPH-SAT/Desktop","no","mono","no","18","no","white","no","yes","768","legacy","75","75","C:/Users/NIM-NPH-SAT/Desktop/subject-10.csv","Y","legacy","Lentiform Loewenfeld","3.3.3","0","a","NA","space","NA","NA","space","NA","a","669","NA","9380","NA","NA","14223","NA","669","2","legacy","6","1024","2","48000","-16","experiment","10","even","NA","NA","NA","NA","11520","NA","12020","NA","134131","NA","73079","NA","195191","538653","NA","2137","NA","270478","538651","539961","NA","13079","NA","135191","NA","NA","74131","NA","196251","2130","526196","539154","270478","256255","NA","540865","541535","539658","NA","538537","540865","538651","adaptive_sets","56","91955","76","T76","yes","1360"
"74.02597402597402","74.02597402597402","1205.8181818181818","1205.8181818181818","black","yes","legacy","legacy","legacy","0","NA","uniform","1","undefined","undefined","1","a","0","0","0","0","0","0","0","0","0","0","76","0","0","0","0","76","76","0","0","0","0","0","0","0","0","0","0","76","76","0","0","NA","76","76","76","NA","76","76","76","1","L","Wed Jan 13 14:06:07 2021","60000","60000","60000","60000","60000","60000","60000","60000","A template containing a practice and an experimental phase","yes","CCS_ACDMT_11012021.osexp","C:/Users/NIM-NPH-SAT/Desktop","no","mono","no","18","no","white","no","yes","768","legacy","76","76","C:/Users/NIM-NPH-SAT/Desktop/subject-10.csv","Y","legacy","Lentiform Loewenfeld","3.3.3","0","a","NA","space","NA","NA","space","NA","a","893","NA","9380","NA","NA","14223","NA","893","2","legacy","6","1024","2","48000","-16","experiment","10","even","NA","NA","NA","NA","11520","NA","12020","NA","134131","NA","73079","NA","195191","541680","NA","2137","NA","270478","541679","542985","NA","13079","NA","135191","NA","NA","74131","NA","196251","2130","542181","539154","270478","256255","NA","543889","544782","542682","NA","541563","543889","541678","adaptive_sets","57","92848","77","T77","yes","1360"
"73.07692307692308","73.07692307692308","1205.923076923077","1205.923076923077","black","yes","legacy","legacy","legacy","0","NA","uniform","0","undefined","undefined","0","l","0","0","0","0","0","0","0","0","0","0","77","0","0","0","0","77","77","0","0","0","0","0","0","0","0","0","0","77","77","0","0","NA","77","77","77","NA","77","77","77","0","L","Wed Jan 13 14:06:07 2021","60000","60000","60000","60000","60000","60000","60000","60000","A template containing a practice and an experimental phase","yes","CCS_ACDMT_11012021.osexp","C:/Users/NIM-NPH-SAT/Desktop","no","mono","no","18","no","white","no","yes","768","legacy","77","77","C:/Users/NIM-NPH-SAT/Desktop/subject-10.csv","N","legacy","Lentiform Loewenfeld","3.3.3","0","a","NA","space","NA","NA","space","NA","a","1214","NA","9380","NA","NA","14223","NA","1214","2","legacy","7","1024","2","48000","-16","experiment","10","even","NA","NA","NA","NA","11520","NA","12020","NA","134131","NA","73079","NA","195191","544924","NA","2137","NA","270478","544922","546232","NA","13079","NA","135191","NA","NA","74131","NA","196251","2130","545425","539154","270478","256255","NA","547136","548351","545928","NA","544806","547136","544922","adaptive_sets","57","94062","78","T78","yes","1360"
